# Transition                      wide 
# Notes                           
# Creation Comment                
# Energy Mode                     KE
# Start Energy in eV              150
# End Energy in eV                1260
# Energy Step in eV               0.5
# Number Of Sweeps                1
# Dwell Time per Sweep in s       0.3
# Analyser Mode                   CAE
# Pass Energy in eV/Retard Ratio  50
# Magnification                   high
# Divide Voltages By 10           off
# Excitation Source               Mg Ka 1253.6 eV normal
# Excitation Energy in eV         1253.6
# Analyser Workfunction in eV     4.5
# Entrance Slit                   6 x 12 mm
# Exit Slit                       5 x 11 mm
# 
# 
# Kinetic Energy in eV         Counts
# --------------------         ------
150.000                    19548.9000
150.500                    19440.7000
151.000                    19331.9000
151.500                    19419.3000
152.000                    19311.3000
152.500                    19261.4000
153.000                    19260.2000
153.500                    19331.9000
154.000                    19300.7000
154.500                    19059.5000
155.000                    18992.2000
155.500                    19187.1000
156.000                    19164.8000
156.500                    18961.0000
157.000                    19011.8000
157.500                    19055.4000
158.000                    18931.4000
158.500                    18780.3000
159.000                    18744.6000
159.500                    18793.1000
160.000                    18673.1000
160.500                    18650.6000
161.000                    18762.9000
161.500                    18758.6000
162.000                    18774.0000
162.500                    18573.6000
163.000                    18603.0000
163.500                    18349.9000
164.000                    18354.4000
164.500                    18416.0000
165.000                    18374.7000
165.500                    18363.8000
166.000                    18375.4000
166.500                    18373.8000
167.000                    18206.2000
167.500                    18058.6000
168.000                    18121.3000
168.500                    17959.2000
169.000                    18015.2000
169.500                    17990.9000
170.000                    17972.0000
170.500                    18043.1000
171.000                    18398.7000
171.500                    18559.4000
172.000                    19092.4000
172.500                    19599.8000
173.000                    20142.3000
173.500                    20265.4000
174.000                    19749.2000
174.500                    19358.5000
175.000                    18597.1000
175.500                    18155.2000
176.000                    17664.8000
176.500                    17675.4000
177.000                    17454.2000
177.500                    17586.9000
178.000                    17653.9000
178.500                    17608.7000
179.000                    17435.3000
179.500                    17357.0000
180.000                    17627.0000
180.500                    17329.7000
181.000                    17323.1000
181.500                    17200.5000
182.000                    17395.1000
182.500                    17279.7000
183.000                    17394.0000
183.500                    17370.0000
184.000                    17203.2000
184.500                    17142.0000
185.000                    16916.6000
185.500                    16773.4000
186.000                    16993.6000
186.500                    16996.1000
187.000                    16879.6000
187.500                    16878.3000
188.000                    16812.0000
188.500                    16719.8000
189.000                    16825.2000
189.500                    16665.1000
190.000                    16848.6000
190.500                    16884.0000
191.000                    16828.4000
191.500                    16789.0000
192.000                    16850.0000
192.500                    16650.5000
193.000                    16684.8000
193.500                    16657.1000
194.000                    16401.1000
194.500                    16426.8000
195.000                    16277.5000
195.500                    16298.1000
196.000                    16450.4000
196.500                    16214.6000
197.000                    16249.8000
197.500                    16449.3000
198.000                    16195.2000
198.500                    16394.9000
199.000                    16340.9000
199.500                    16004.6000
200.000                    16230.1000
200.500                    16221.8000
201.000                    16197.3000
201.500                    16233.4000
202.000                    16073.6000
202.500                    16194.9000
203.000                    16115.0000
203.500                    16091.7000
204.000                    16145.3000
204.500                    16339.1000
205.000                    16407.5000
205.500                    16355.3000
206.000                    16378.5000
206.500                    16344.5000
207.000                    16516.0000
207.500                    16363.3000
208.000                    16107.5000
208.500                    16318.6000
209.000                    16272.1000
209.500                    16046.1000
210.000                    15764.9000
210.500                    15721.8000
211.000                    15486.8000
211.500                    15526.9000
212.000                    15524.8000
212.500                    15403.4000
213.000                    15396.9000
213.500                    15270.2000
214.000                    15210.5000
214.500                    15080.9000
215.000                    15106.7000
215.500                    15263.5000
216.000                    15120.8000
216.500                    15119.1000
217.000                    15099.0000
217.500                    15042.7000
218.000                    15010.1000
218.500                    15109.4000
219.000                    14915.5000
219.500                    15065.1000
220.000                    14921.0000
220.500                    14987.8000
221.000                    15125.0000
221.500                    15111.4000
222.000                    14931.3000
222.500                    14963.6000
223.000                    15180.7000
223.500                    14996.7000
224.000                    14993.5000
224.500                    14926.9000
225.000                    15003.0000
225.500                    14832.7000
226.000                    14856.0000
226.500                    14971.5000
227.000                    15080.5000
227.500                    14762.3000
228.000                    15189.0000
228.500                    15097.3000
229.000                    15178.8000
229.500                    15144.2000
230.000                    15182.9000
230.500                    15517.3000
231.000                    15469.7000
231.500                    15607.5000
232.000                    15441.6000
232.500                    15815.3000
233.000                    15450.4000
233.500                    15437.3000
234.000                    15308.6000
234.500                    14968.6000
235.000                    15066.4000
235.500                    14965.0000
236.000                    14940.7000
236.500                    15058.5000
237.000                    15010.0000
237.500                    14712.2000
238.000                    14913.3000
238.500                    15058.3000
239.000                    15046.7000
239.500                    15180.3000
240.000                    15059.5000
240.500                    14865.0000
241.000                    14940.9000
241.500                    14803.3000
242.000                    14971.9000
242.500                    14907.2000
243.000                    14979.8000
243.500                    14890.4000
244.000                    14625.1000
244.500                    14796.7000
245.000                    14869.6000
245.500                    15049.2000
246.000                    15000.7000
246.500                    15199.4000
247.000                    15069.4000
247.500                    15189.6000
248.000                    15049.2000
248.500                    15152.7000
249.000                    15237.9000
249.500                    15329.8000
250.000                    15390.8000
250.500                    15379.9000
251.000                    15477.1000
251.500                    15365.9000
252.000                    15342.3000
252.500                    15162.0000
253.000                    15184.7000
253.500                    15288.7000
254.000                    15237.3000
254.500                    15155.1000
255.000                    15235.5000
255.500                    15181.6000
256.000                    15139.0000
256.500                    14960.2000
257.000                    15005.5000
257.500                    14887.2000
258.000                    14841.5000
258.500                    14794.9000
259.000                    14768.5000
259.500                    14484.2000
260.000                    14446.0000
260.500                    14320.2000
261.000                    14360.4000
261.500                    14268.3000
262.000                    14300.7000
262.500                    14223.3000
263.000                    13958.1000
263.500                    13867.9000
264.000                    13828.6000
264.500                    13802.3000
265.000                    13936.2000
265.500                    13585.0000
266.000                    13450.4000
266.500                    13282.3000
267.000                    13384.0000
267.500                    13323.1000
268.000                    13533.2000
268.500                    13353.5000
269.000                    13173.9000
269.500                    13237.0000
270.000                    13354.2000
270.500                    12871.8000
271.000                    13111.0000
271.500                    13181.4000
272.000                    13027.7000
272.500                    12963.9000
273.000                    13040.0000
273.500                    13098.9000
274.000                    12995.0000
274.500                    12969.8000
275.000                    12986.4000
275.500                    12951.6000
276.000                    12886.2000
276.500                    12883.4000
277.000                    12901.2000
277.500                    12852.9000
278.000                    12820.0000
278.500                    12921.0000
279.000                    12893.1000
279.500                    12854.9000
280.000                    12882.7000
280.500                    12928.6000
281.000                    13048.5000
281.500                    12798.7000
282.000                    12521.1000
282.500                    12506.3000
283.000                    12612.7000
283.500                    12805.4000
284.000                    12850.4000
284.500                    12869.9000
285.000                    12734.6000
285.500                    12939.2000
286.000                    12892.7000
286.500                    12789.4000
287.000                    12871.6000
287.500                    12680.8000
288.000                    12927.7000
288.500                    12626.5000
289.000                    12546.0000
289.500                    12581.0000
290.000                    12571.6000
290.500                    12604.5000
291.000                    12608.1000
291.500                    12603.9000
292.000                    12532.2000
292.500                    12656.9000
293.000                    12467.5000
293.500                    12679.9000
294.000                    12582.8000
294.500                    12660.0000
295.000                    12666.0000
295.500                    12647.1000
296.000                    12540.0000
296.500                    12479.5000
297.000                    12447.8000
297.500                    12642.0000
298.000                    12597.7000
298.500                    12562.0000
299.000                    12576.3000
299.500                    12507.2000
300.000                    12668.2000
300.500                    12537.1000
301.000                    12636.0000
301.500                    12554.8000
302.000                    12403.2000
302.500                    12498.4000
303.000                    12591.6000
303.500                    12543.2000
304.000                    12678.1000
304.500                    12563.6000
305.000                    12716.0000
305.500                    12624.0000
306.000                    12624.2000
306.500                    12452.7000
307.000                    12552.9000
307.500                    12626.9000
308.000                    12446.8000
308.500                    12556.2000
309.000                    12692.5000
309.500                    12556.0000
310.000                    12572.8000
310.500                    12507.7000
311.000                    12612.7000
311.500                    12590.5000
312.000                    12545.4000
312.500                    12574.9000
313.000                    12680.3000
313.500                    12468.8000
314.000                    12682.0000
314.500                    12534.1000
315.000                    12617.3000
315.500                    12534.6000
316.000                    12586.5000
316.500                    12561.9000
317.000                    12574.6000
317.500                    12457.5000
318.000                    12334.0000
318.500                    12423.8000
319.000                    12441.0000
319.500                    12455.8000
320.000                    12499.9000
320.500                    12599.3000
321.000                    12579.1000
321.500                    12622.9000
322.000                    12583.0000
322.500                    12619.5000
323.000                    12435.2000
323.500                    12395.8000
324.000                    12459.4000
324.500                    12449.4000
325.000                    12382.2000
325.500                    12159.7000
326.000                    12338.2000
326.500                    12485.0000
327.000                    12518.2000
327.500                    12414.2000
328.000                    12628.4000
328.500                    12490.3000
329.000                    12493.9000
329.500                    12522.3000
330.000                    12338.6000
330.500                    12418.5000
331.000                    12316.5000
331.500                    12383.3000
332.000                    12516.5000
332.500                    12501.6000
333.000                    12514.9000
333.500                    12497.8000
334.000                    12387.9000
334.500                    12313.9000
335.000                    12307.5000
335.500                    12396.5000
336.000                    12662.3000
336.500                    12414.9000
337.000                    12508.1000
337.500                    12581.3000
338.000                    12416.6000
338.500                    12518.9000
339.000                    12480.5000
339.500                    12517.0000
340.000                    12317.7000
340.500                    12479.6000
341.000                    12607.2000
341.500                    12457.0000
342.000                    12544.1000
342.500                    12414.7000
343.000                    12561.8000
343.500                    12413.4000
344.000                    12418.1000
344.500                    12605.9000
345.000                    12278.0000
345.500                    12613.5000
346.000                    12629.3000
346.500                    12675.6000
347.000                    12479.5000
347.500                    12493.5000
348.000                    12560.1000
348.500                    12544.2000
349.000                    12665.5000
349.500                    12658.1000
350.000                    12507.8000
350.500                    12554.3000
351.000                    12562.5000
351.500                    12382.4000
352.000                    12486.0000
352.500                    12649.7000
353.000                    12626.1000
353.500                    12525.7000
354.000                    12480.6000
354.500                    12571.0000
355.000                    12508.2000
355.500                    12394.4000
356.000                    12645.9000
356.500                    12776.9000
357.000                    12554.7000
357.500                    12708.2000
358.000                    12626.6000
358.500                    12814.9000
359.000                    12583.2000
359.500                    12556.1000
360.000                    12552.0000
360.500                    12595.9000
361.000                    12690.2000
361.500                    12685.6000
362.000                    12651.0000
362.500                    12535.4000
363.000                    12732.5000
363.500                    12684.0000
364.000                    12629.4000
364.500                    12696.5000
365.000                    12648.4000
365.500                    12665.3000
366.000                    12696.2000
366.500                    12664.5000
367.000                    12652.8000
367.500                    12732.8000
368.000                    12592.0000
368.500                    12727.1000
369.000                    12615.5000
369.500                    12732.6000
370.000                    12741.6000
370.500                    12679.3000
371.000                    12722.1000
371.500                    12788.6000
372.000                    12673.4000
372.500                    12737.9000
373.000                    12735.6000
373.500                    12757.6000
374.000                    12791.2000
374.500                    12740.6000
375.000                    12643.0000
375.500                    12786.5000
376.000                    12802.4000
376.500                    12796.1000
377.000                    12618.7000
377.500                    12835.5000
378.000                    12828.2000
378.500                    12968.8000
379.000                    12862.9000
379.500                    12794.4000
380.000                    12717.6000
380.500                    12989.1000
381.000                    12753.0000
381.500                    12644.0000
382.000                    12796.0000
382.500                    13013.6000
383.000                    12791.7000
383.500                    12806.9000
384.000                    12801.4000
384.500                    12888.4000
385.000                    12831.4000
385.500                    12740.6000
386.000                    13012.2000
386.500                    12750.5000
387.000                    12643.4000
387.500                    12725.6000
388.000                    12867.0000
388.500                    12870.8000
389.000                    13041.2000
389.500                    12999.5000
390.000                    12992.2000
390.500                    12882.4000
391.000                    12864.1000
391.500                    12916.1000
392.000                    12949.1000
392.500                    13111.0000
393.000                    12882.8000
393.500                    13039.7000
394.000                    13293.1000
394.500                    13177.6000
395.000                    13202.6000
395.500                    13216.5000
396.000                    13500.4000
396.500                    13294.5000
397.000                    13325.6000
397.500                    13375.8000
398.000                    13258.5000
398.500                    13269.5000
399.000                    13203.6000
399.500                    13091.3000
400.000                    13160.1000
400.500                    13199.8000
401.000                    13262.5000
401.500                    13176.1000
402.000                    13149.8000
402.500                    13052.2000
403.000                    13264.4000
403.500                    13058.7000
404.000                    13128.1000
404.500                    13170.4000
405.000                    12981.8000
405.500                    13235.4000
406.000                    13289.8000
406.500                    13328.4000
407.000                    13332.2000
407.500                    13285.5000
408.000                    13142.0000
408.500                    13237.3000
409.000                    13357.9000
409.500                    13405.5000
410.000                    13180.7000
410.500                    13342.5000
411.000                    13532.9000
411.500                    13444.2000
412.000                    13361.4000
412.500                    13453.1000
413.000                    13330.8000
413.500                    13353.9000
414.000                    13417.5000
414.500                    13461.5000
415.000                    13424.4000
415.500                    13440.6000
416.000                    13276.2000
416.500                    13541.8000
417.000                    13412.0000
417.500                    13553.5000
418.000                    13502.9000
418.500                    13605.7000
419.000                    13467.0000
419.500                    13519.8000
420.000                    13502.7000
420.500                    13465.9000
421.000                    13369.1000
421.500                    13785.6000
422.000                    13584.2000
422.500                    13561.7000
423.000                    13524.7000
423.500                    13550.9000
424.000                    13574.8000
424.500                    13629.3000
425.000                    13443.7000
425.500                    13494.9000
426.000                    13481.9000
426.500                    13494.7000
427.000                    13567.1000
427.500                    13647.8000
428.000                    13799.1000
428.500                    13569.2000
429.000                    13589.0000
429.500                    13704.9000
430.000                    13865.1000
430.500                    14017.2000
431.000                    13721.8000
431.500                    13763.8000
432.000                    13871.3000
432.500                    13859.5000
433.000                    13834.5000
433.500                    13729.1000
434.000                    13848.9000
434.500                    13795.9000
435.000                    13837.5000
435.500                    13791.3000
436.000                    13772.6000
436.500                    13956.5000
437.000                    14109.8000
437.500                    14022.9000
438.000                    14419.9000
438.500                    14489.0000
439.000                    14520.9000
439.500                    14522.0000
440.000                    14890.5000
440.500                    14996.2000
441.000                    15213.4000
441.500                    15303.9000
442.000                    15234.2000
442.500                    15120.8000
443.000                    14892.3000
443.500                    14680.2000
444.000                    14469.2000
444.500                    14455.3000
445.000                    14410.2000
445.500                    14455.9000
446.000                    14468.9000
446.500                    14450.3000
447.000                    14385.6000
447.500                    14409.2000
448.000                    14432.6000
448.500                    14656.1000
449.000                    14642.1000
449.500                    14528.1000
450.000                    14558.2000
450.500                    14353.9000
451.000                    14414.6000
451.500                    14679.8000
452.000                    14717.1000
452.500                    14691.0000
453.000                    14821.0000
453.500                    14829.9000
454.000                    14819.9000
454.500                    15121.2000
455.000                    15031.9000
455.500                    14912.2000
456.000                    15022.6000
456.500                    15143.9000
457.000                    15116.7000
457.500                    15153.9000
458.000                    15335.1000
458.500                    15223.6000
459.000                    15367.9000
459.500                    15411.1000
460.000                    15486.1000
460.500                    15575.9000
461.000                    15450.4000
461.500                    15697.1000
462.000                    15734.4000
462.500                    15922.2000
463.000                    16151.3000
463.500                    15983.3000
464.000                    15937.8000
464.500                    15981.7000
465.000                    15610.2000
465.500                    15573.7000
466.000                    15440.6000
466.500                    15294.4000
467.000                    15246.2000
467.500                    15224.7000
468.000                    15135.2000
468.500                    15020.9000
469.000                    15145.1000
469.500                    15132.9000
470.000                    15562.2000
470.500                    15184.4000
471.000                    15385.2000
471.500                    15427.6000
472.000                    15875.8000
472.500                    15994.7000
473.000                    16064.8000
473.500                    16488.6000
474.000                    16576.2000
474.500                    16709.0000
475.000                    17127.1000
475.500                    17080.7000
476.000                    17438.8000
476.500                    17766.9000
477.000                    17930.4000
477.500                    17872.1000
478.000                    18157.3000
478.500                    17957.9000
479.000                    17726.4000
479.500                    17444.6000
480.000                    17016.1000
480.500                    16769.5000
481.000                    16075.2000
481.500                    15777.3000
482.000                    15743.4000
482.500                    15361.5000
483.000                    15215.7000
483.500                    15157.2000
484.000                    14845.3000
484.500                    14895.1000
485.000                    14761.5000
485.500                    14566.6000
486.000                    14583.1000
486.500                    14192.3000
487.000                    13912.3000
487.500                    13775.5000
488.000                    13487.3000
488.500                    13514.5000
489.000                    13330.5000
489.500                    13398.6000
490.000                    13750.7000
490.500                    13525.9000
491.000                    13691.1000
491.500                    14040.7000
492.000                    14236.1000
492.500                    14575.5000
493.000                    15135.9000
493.500                    15484.4000
494.000                    16398.5000
494.500                    17234.1000
495.000                    18140.8000
495.500                    19180.1000
496.000                    20155.4000
496.500                    21028.8000
497.000                    21715.7000
497.500                    22686.7000
498.000                    23299.2000
498.500                    23482.4000
499.000                    23186.9000
499.500                    22357.8000
500.000                    21375.0000
500.500                    20066.1000
501.000                    18679.9000
501.500                    17678.6000
502.000                    16499.9000
502.500                    16052.8000
503.000                    15139.2000
503.500                    14660.3000
504.000                    14096.9000
504.500                    13725.2000
505.000                    13306.0000
505.500                    13026.9000
506.000                    12584.1000
506.500                    12109.2000
507.000                    11838.8000
507.500                    11477.0000
508.000                    11107.1000
508.500                    10812.3000
509.000                    10400.5000
509.500                    10155.0000
510.000                     9730.5000
510.500                     9480.6000
511.000                     9284.7000
511.500                     8974.8000
512.000                     8871.6000
512.500                     8818.6000
513.000                     8618.1000
513.500                     8656.3000
514.000                     8596.3000
514.500                     8595.6000
515.000                     8656.1000
515.500                     8517.8000
516.000                     8455.2000
516.500                     8549.2000
517.000                     8611.8000
517.500                     8414.1000
518.000                     8367.2000
518.500                     8446.5000
519.000                     8338.4000
519.500                     8476.9000
520.000                     8241.7000
520.500                     8246.9000
521.000                     8247.4000
521.500                     8394.5000
522.000                     8260.7000
522.500                     8410.6000
523.000                     8380.7000
523.500                     8344.2000
524.000                     8267.6000
524.500                     8333.4000
525.000                     8364.0000
525.500                     8407.0000
526.000                     8295.1000
526.500                     8389.7000
527.000                     8198.8000
527.500                     8349.5000
528.000                     8370.4000
528.500                     8323.5000
529.000                     8277.7000
529.500                     8406.9000
530.000                     8294.8000
530.500                     8187.3000
531.000                     8303.2000
531.500                     8311.0000
532.000                     8358.3000
532.500                     8327.4000
533.000                     8489.1000
533.500                     8238.4000
534.000                     8172.7000
534.500                     8185.6000
535.000                     8324.1000
535.500                     8299.6000
536.000                     8413.5000
536.500                     8528.2000
537.000                     8319.9000
537.500                     8174.7000
538.000                     8219.6000
538.500                     8312.4000
539.000                     8375.8000
539.500                     8272.9000
540.000                     8279.9000
540.500                     8254.2000
541.000                     8228.4000
541.500                     8358.8000
542.000                     8270.7000
542.500                     8261.3000
543.000                     8379.6000
543.500                     8206.6000
544.000                     8181.4000
544.500                     8175.3000
545.000                     8197.0000
545.500                     8181.0000
546.000                     8132.2000
546.500                     8135.8000
547.000                     8087.1000
547.500                     8167.0000
548.000                     8141.7000
548.500                     8188.0000
549.000                     8224.8000
549.500                     8299.6000
550.000                     8218.2000
550.500                     8171.2000
551.000                     8132.2000
551.500                     8255.5000
552.000                     8060.5000
552.500                     8345.4000
553.000                     8074.3000
553.500                     8142.6000
554.000                     8267.0000
554.500                     8117.8000
555.000                     8284.2000
555.500                     8272.6000
556.000                     8221.7000
556.500                     8339.1000
557.000                     8265.2000
557.500                     8323.7000
558.000                     8416.8000
558.500                     8434.6000
559.000                     8493.1000
559.500                     8382.8000
560.000                     8376.7000
560.500                     8324.3000
561.000                     8177.0000
561.500                     8097.6000
562.000                     8262.8000
562.500                     8234.1000
563.000                     8194.6000
563.500                     8195.3000
564.000                     8320.8000
564.500                     8224.6000
565.000                     8296.6000
565.500                     8215.1000
566.000                     8192.8000
566.500                     8170.9000
567.000                     8246.4000
567.500                     8273.8000
568.000                     8159.0000
568.500                     8286.9000
569.000                     8310.6000
569.500                     8202.2000
570.000                     8242.8000
570.500                     8248.5000
571.000                     8263.6000
571.500                     8163.5000
572.000                     8292.2000
572.500                     8294.2000
573.000                     8231.2000
573.500                     8316.0000
574.000                     8306.4000
574.500                     8317.7000
575.000                     8191.8000
575.500                     8275.8000
576.000                     8168.4000
576.500                     8104.2000
577.000                     8273.0000
577.500                     8174.5000
578.000                     8139.5000
578.500                     8228.8000
579.000                     8360.1000
579.500                     8242.4000
580.000                     8237.4000
580.500                     8280.9000
581.000                     8371.4000
581.500                     8505.3000
582.000                     8221.7000
582.500                     8278.3000
583.000                     8248.5000
583.500                     8110.0000
584.000                     8240.0000
584.500                     8404.1000
585.000                     8292.9000
585.500                     8254.6000
586.000                     8356.2000
586.500                     8287.3000
587.000                     8285.6000
587.500                     8360.3000
588.000                     8315.6000
588.500                     8340.9000
589.000                     8274.4000
589.500                     8430.6000
590.000                     8430.7000
590.500                     8361.6000
591.000                     8269.6000
591.500                     8333.1000
592.000                     8352.9000
592.500                     8309.6000
593.000                     8407.9000
593.500                     8348.7000
594.000                     8345.1000
594.500                     8405.0000
595.000                     8303.9000
595.500                     8403.7000
596.000                     8237.7000
596.500                     8240.3000
597.000                     8414.3000
597.500                     8482.8000
598.000                     8491.7000
598.500                     8472.2000
599.000                     8303.8000
599.500                     8408.8000
600.000                     8245.8000
600.500                     8551.7000
601.000                     8448.0000
601.500                     8382.5000
602.000                     8206.6000
602.500                     8508.2000
603.000                     8548.6000
603.500                     8457.9000
604.000                     8372.8000
604.500                     8447.5000
605.000                     8452.7000
605.500                     8501.0000
606.000                     8494.6000
606.500                     8355.0000
607.000                     8513.4000
607.500                     8522.1000
608.000                     8360.3000
608.500                     8458.2000
609.000                     8431.6000
609.500                     8628.4000
610.000                     8695.2000
610.500                     8612.2000
611.000                     8485.0000
611.500                     8428.7000
612.000                     8502.3000
612.500                     8539.8000
613.000                     8542.2000
613.500                     8435.1000
614.000                     8547.3000
614.500                     8668.8000
615.000                     8643.2000
615.500                     8635.6000
616.000                     8458.8000
616.500                     8635.0000
617.000                     8477.9000
617.500                     8419.9000
618.000                     8674.0000
618.500                     8504.1000
619.000                     8534.5000
619.500                     8539.3000
620.000                     8576.5000
620.500                     8602.0000
621.000                     8693.0000
621.500                     8633.6000
622.000                     8534.6000
622.500                     8615.3000
623.000                     8558.7000
623.500                     8573.8000
624.000                     8601.9000
624.500                     8667.9000
625.000                     8723.0000
625.500                     8548.9000
626.000                     8696.4000
626.500                     8617.1000
627.000                     8754.5000
627.500                     8695.2000
628.000                     8705.9000
628.500                     8816.2000
629.000                     8797.1000
629.500                     8748.3000
630.000                     8690.7000
630.500                     8787.8000
631.000                     8787.8000
631.500                     8741.8000
632.000                     8620.6000
632.500                     8934.7000
633.000                     8778.0000
633.500                     8773.4000
634.000                     8811.5000
634.500                     8896.5000
635.000                     8910.6000
635.500                     8753.3000
636.000                     8930.1000
636.500                     8989.1000
637.000                     8971.3000
637.500                     8702.4000
638.000                     8859.3000
638.500                     8845.5000
639.000                     8745.5000
639.500                     8862.9000
640.000                     8880.3000
640.500                     8771.5000
641.000                     8700.3000
641.500                     8925.9000
642.000                     8979.6000
642.500                     8836.0000
643.000                     8998.9000
643.500                     8999.7000
644.000                     8934.9000
644.500                     9145.0000
645.000                     9119.6000
645.500                     9085.9000
646.000                     9145.3000
646.500                     9079.5000
647.000                     9073.8000
647.500                     9007.4000
648.000                     9003.1000
648.500                     9055.2000
649.000                     9013.8000
649.500                     9256.9000
650.000                     9271.9000
650.500                     9067.5000
651.000                     9041.6000
651.500                     8960.2000
652.000                     8986.8000
652.500                     8926.9000
653.000                     9022.8000
653.500                     9194.3000
654.000                     9096.9000
654.500                     8974.3000
655.000                     8973.8000
655.500                     9022.0000
656.000                     9187.7000
656.500                     9198.9000
657.000                     9174.7000
657.500                     9192.0000
658.000                     9177.4000
658.500                     9267.0000
659.000                     9314.1000
659.500                     9195.2000
660.000                     9229.8000
660.500                     9338.9000
661.000                     9279.1000
661.500                     9247.8000
662.000                     9340.1000
662.500                     9397.0000
663.000                     9334.1000
663.500                     9420.7000
664.000                     9470.2000
664.500                     9413.4000
665.000                     9388.9000
665.500                     9473.8000
666.000                     9461.6000
666.500                     9545.5000
667.000                     9411.7000
667.500                     9408.4000
668.000                     9522.5000
668.500                     9293.5000
669.000                     9379.8000
669.500                     9372.9000
670.000                     9385.8000
670.500                     9505.2000
671.000                     9484.7000
671.500                     9306.8000
672.000                     9354.4000
672.500                     9521.3000
673.000                     9531.5000
673.500                     9447.8000
674.000                     9541.8000
674.500                     9521.2000
675.000                     9526.3000
675.500                     9467.9000
676.000                     9558.5000
676.500                     9486.0000
677.000                     9454.3000
677.500                     9343.2000
678.000                     9534.8000
678.500                     9519.5000
679.000                     9505.4000
679.500                     9303.1000
680.000                     9459.6000
680.500                     9376.8000
681.000                     9507.8000
681.500                     9470.1000
682.000                     9693.2000
682.500                     9588.5000
683.000                     9645.3000
683.500                     9792.1000
684.000                     9939.4000
684.500                    10171.7000
685.000                    10198.7000
685.500                    10389.5000
686.000                    10536.2000
686.500                    10625.6000
687.000                    10813.3000
687.500                    10757.3000
688.000                    10898.6000
688.500                    10941.1000
689.000                    11025.8000
689.500                    11096.9000
690.000                    11121.1000
690.500                    11037.6000
691.000                    10847.0000
691.500                    10688.9000
692.000                    10410.6000
692.500                    10391.8000
693.000                    10283.2000
693.500                    10047.1000
694.000                     9695.3000
694.500                     9592.3000
695.000                     9557.3000
695.500                     9317.2000
696.000                     9364.3000
696.500                     9171.1000
697.000                     8999.5000
697.500                     8830.2000
698.000                     8682.3000
698.500                     8717.8000
699.000                     8604.3000
699.500                     8505.9000
700.000                     8433.2000
700.500                     8361.5000
701.000                     8218.3000
701.500                     7960.4000
702.000                     7762.7000
702.500                     7660.2000
703.000                     7534.6000
703.500                     7371.7000
704.000                     7070.2000
704.500                     7085.8000
705.000                     7003.3000
705.500                     6975.0000
706.000                     7003.7000
706.500                     6872.1000
707.000                     6905.6000
707.500                     7195.6000
708.000                     7280.7000
708.500                     7816.1000
709.000                     9029.1000
709.500                    11044.1000
710.000                    14643.4000
710.500                    20211.3000
711.000                    26922.5000
711.500                    32518.5000
712.000                    35737.6000
712.500                    34360.8000
713.000                    28510.5000
713.500                    20833.6000
714.000                    14313.6000
714.500                    10233.6000
715.000                     7965.1000
715.500                     7141.2000
716.000                     6882.7000
716.500                     6813.7000
717.000                     6751.3000
717.500                     6644.5000
718.000                     6836.6000
718.500                     6879.6000
719.000                     7340.9000
719.500                     7862.7000
720.000                     8529.6000
720.500                     8926.1000
721.000                     9060.5000
721.500                     9031.1000
722.000                     8642.0000
722.500                     8218.5000
723.000                     7693.2000
723.500                     7137.4000
724.000                     6620.9000
724.500                     6222.6000
725.000                     5954.5000
725.500                     5934.0000
726.000                     5873.1000
726.500                     5758.2000
727.000                     5747.9000
727.500                     5805.9000
728.000                     5856.1000
728.500                     5792.1000
729.000                     6044.4000
729.500                     5958.3000
730.000                     6037.5000
730.500                     5952.9000
731.000                     5970.3000
731.500                     5775.7000
732.000                     5864.8000
732.500                     6025.3000
733.000                     5918.9000
733.500                     5874.7000
734.000                     5833.7000
734.500                     5769.1000
735.000                     5763.0000
735.500                     5830.1000
736.000                     5735.9000
736.500                     5683.0000
737.000                     5682.1000
737.500                     5710.2000
738.000                     5766.9000
738.500                     5716.0000
739.000                     5684.5000
739.500                     5718.4000
740.000                     5705.2000
740.500                     5650.9000
741.000                     5620.5000
741.500                     5636.8000
742.000                     5785.6000
742.500                     5712.9000
743.000                     5630.5000
743.500                     5729.7000
744.000                     5633.3000
744.500                     5643.1000
745.000                     5577.6000
745.500                     5540.2000
746.000                     5610.8000
746.500                     5603.0000
747.000                     5609.8000
747.500                     5575.0000
748.000                     5597.3000
748.500                     5652.1000
749.000                     5653.5000
749.500                     5714.0000
750.000                     5585.9000
750.500                     5662.1000
751.000                     5598.7000
751.500                     5641.9000
752.000                     5717.0000
752.500                     5625.2000
753.000                     5588.4000
753.500                     5624.1000
754.000                     5675.6000
754.500                     5611.7000
755.000                     5599.1000
755.500                     5652.8000
756.000                     5571.4000
756.500                     5716.3000
757.000                     5704.6000
757.500                     5757.9000
758.000                     5785.8000
758.500                     5839.4000
759.000                     5735.6000
759.500                     5629.8000
760.000                     5683.2000
760.500                     5782.6000
761.000                     5580.2000
761.500                     5642.4000
762.000                     5714.3000
762.500                     5672.4000
763.000                     5573.6000
763.500                     5579.9000
764.000                     5541.4000
764.500                     5493.8000
765.000                     5535.5000
765.500                     5508.1000
766.000                     5646.8000
766.500                     5700.9000
767.000                     5589.1000
767.500                     5496.8000
768.000                     5516.0000
768.500                     5630.0000
769.000                     5614.7000
769.500                     5450.0000
770.000                     5494.3000
770.500                     5614.6000
771.000                     5587.0000
771.500                     5528.5000
772.000                     5531.4000
772.500                     5526.3000
773.000                     5568.9000
773.500                     5562.9000
774.000                     5501.0000
774.500                     5567.8000
775.000                     5624.0000
775.500                     5576.4000
776.000                     5551.9000
776.500                     5536.4000
777.000                     5513.2000
777.500                     5464.9000
778.000                     5541.6000
778.500                     5433.0000
779.000                     5457.4000
779.500                     5602.7000
780.000                     5452.0000
780.500                     5473.7000
781.000                     5544.1000
781.500                     5607.9000
782.000                     5643.1000
782.500                     5564.2000
783.000                     5521.9000
783.500                     5496.3000
784.000                     5398.5000
784.500                     5476.2000
785.000                     5476.0000
785.500                     5420.4000
786.000                     5477.8000
786.500                     5519.8000
787.000                     5513.9000
787.500                     5613.7000
788.000                     5541.1000
788.500                     5609.4000
789.000                     5561.7000
789.500                     5540.2000
790.000                     5524.3000
790.500                     5565.5000
791.000                     5508.2000
791.500                     5435.3000
792.000                     5602.2000
792.500                     5380.7000
793.000                     5479.1000
793.500                     5592.5000
794.000                     5569.3000
794.500                     5570.1000
795.000                     5574.5000
795.500                     5493.9000
796.000                     5458.8000
796.500                     5605.1000
797.000                     5492.0000
797.500                     5477.2000
798.000                     5531.0000
798.500                     5577.0000
799.000                     5426.2000
799.500                     5421.5000
800.000                     5502.8000
800.500                     5569.5000
801.000                     5475.3000
801.500                     5369.9000
802.000                     5474.6000
802.500                     5470.7000
803.000                     5525.8000
803.500                     5597.4000
804.000                     5586.6000
804.500                     5544.7000
805.000                     5594.8000
805.500                     5588.1000
806.000                     5573.5000
806.500                     5616.6000
807.000                     5553.3000
807.500                     5609.9000
808.000                     5549.7000
808.500                     5538.8000
809.000                     5383.5000
809.500                     5480.0000
810.000                     5581.7000
810.500                     5571.4000
811.000                     5468.3000
811.500                     5515.6000
812.000                     5524.0000
812.500                     5493.2000
813.000                     5506.3000
813.500                     5597.5000
814.000                     5487.8000
814.500                     5496.7000
815.000                     5542.0000
815.500                     5557.0000
816.000                     5580.5000
816.500                     5439.4000
817.000                     5398.8000
817.500                     5435.5000
818.000                     5519.1000
818.500                     5520.4000
819.000                     5394.9000
819.500                     5486.2000
820.000                     5543.0000
820.500                     5560.6000
821.000                     5425.8000
821.500                     5491.4000
822.000                     5429.6000
822.500                     5478.3000
823.000                     5652.7000
823.500                     5420.0000
824.000                     5531.6000
824.500                     5539.5000
825.000                     5498.2000
825.500                     5421.7000
826.000                     5374.4000
826.500                     5539.4000
827.000                     5488.7000
827.500                     5507.7000
828.000                     5368.7000
828.500                     5456.7000
829.000                     5554.7000
829.500                     5531.0000
830.000                     5422.7000
830.500                     5498.6000
831.000                     5425.5000
831.500                     5450.3000
832.000                     5504.3000
832.500                     5543.8000
833.000                     5437.1000
833.500                     5450.8000
834.000                     5604.7000
834.500                     5464.9000
835.000                     5436.2000
835.500                     5420.3000
836.000                     5538.1000
836.500                     5538.9000
837.000                     5427.6000
837.500                     5372.0000
838.000                     5474.2000
838.500                     5554.2000
839.000                     5489.2000
839.500                     5402.0000
840.000                     5451.6000
840.500                     5551.5000
841.000                     5434.2000
841.500                     5737.9000
842.000                     5654.7000
842.500                     5493.2000
843.000                     5532.0000
843.500                     5512.2000
844.000                     5618.8000
844.500                     5574.4000
845.000                     5722.2000
845.500                     5472.9000
846.000                     5481.1000
846.500                     5578.3000
847.000                     5515.7000
847.500                     5483.6000
848.000                     5523.2000
848.500                     5392.3000
849.000                     5428.0000
849.500                     5550.2000
850.000                     5501.1000
850.500                     5427.3000
851.000                     5472.5000
851.500                     5433.7000
852.000                     5503.2000
852.500                     5478.2000
853.000                     5373.3000
853.500                     5559.9000
854.000                     5497.7000
854.500                     5493.6000
855.000                     5464.4000
855.500                     5426.5000
856.000                     5467.0000
856.500                     5416.6000
857.000                     5489.5000
857.500                     5476.9000
858.000                     5486.2000
858.500                     5406.8000
859.000                     5410.0000
859.500                     5422.1000
860.000                     5417.7000
860.500                     5465.4000
861.000                     5496.9000
861.500                     5354.4000
862.000                     5387.1000
862.500                     5405.1000
863.000                     5518.9000
863.500                     5506.3000
864.000                     5514.7000
864.500                     5519.6000
865.000                     5568.1000
865.500                     5634.2000
866.000                     5527.6000
866.500                     5465.1000
867.000                     5507.9000
867.500                     5468.3000
868.000                     5431.8000
868.500                     5354.3000
869.000                     5416.8000
869.500                     5531.6000
870.000                     5491.8000
870.500                     5486.8000
871.000                     5471.2000
871.500                     5442.9000
872.000                     5457.5000
872.500                     5511.3000
873.000                     5537.6000
873.500                     5510.5000
874.000                     5446.5000
874.500                     5453.7000
875.000                     5476.8000
875.500                     5548.1000
876.000                     5636.8000
876.500                     5457.9000
877.000                     5497.5000
877.500                     5504.0000
878.000                     5437.3000
878.500                     5577.3000
879.000                     5525.8000
879.500                     5455.6000
880.000                     5463.4000
880.500                     5459.5000
881.000                     5433.8000
881.500                     5532.1000
882.000                     5514.3000
882.500                     5466.5000
883.000                     5391.2000
883.500                     5529.8000
884.000                     5390.8000
884.500                     5516.5000
885.000                     5530.8000
885.500                     5483.0000
886.000                     5559.6000
886.500                     5639.4000
887.000                     5504.3000
887.500                     5520.0000
888.000                     5528.6000
888.500                     5454.4000
889.000                     5443.0000
889.500                     5505.4000
890.000                     5589.8000
890.500                     5506.6000
891.000                     5529.5000
891.500                     5655.5000
892.000                     5554.9000
892.500                     5571.1000
893.000                     5586.6000
893.500                     5583.9000
894.000                     5633.0000
894.500                     5532.5000
895.000                     5628.2000
895.500                     5659.9000
896.000                     5710.1000
896.500                     5564.6000
897.000                     5655.4000
897.500                     5610.4000
898.000                     5547.9000
898.500                     5459.7000
899.000                     5521.5000
899.500                     5545.1000
900.000                     5672.1000
900.500                     5750.5000
901.000                     5673.2000
901.500                     5562.6000
902.000                     5590.3000
902.500                     5578.8000
903.000                     5602.1000
903.500                     5650.7000
904.000                     5580.7000
904.500                     5662.6000
905.000                     5655.4000
905.500                     5668.9000
906.000                     5561.7000
906.500                     5458.9000
907.000                     5589.5000
907.500                     5526.8000
908.000                     5652.6000
908.500                     5707.5000
909.000                     5756.6000
909.500                     5610.9000
910.000                     5523.2000
910.500                     5681.5000
911.000                     5551.5000
911.500                     5562.9000
912.000                     5656.2000
912.500                     5669.8000
913.000                     5750.0000
913.500                     5624.3000
914.000                     5617.0000
914.500                     5614.9000
915.000                     5536.8000
915.500                     5537.6000
916.000                     5651.5000
916.500                     5566.3000
917.000                     5642.1000
917.500                     5605.3000
918.000                     5606.6000
918.500                     5763.4000
919.000                     5587.2000
919.500                     5581.7000
920.000                     5582.5000
920.500                     5617.6000
921.000                     5617.8000
921.500                     5729.0000
922.000                     5869.5000
922.500                     5830.2000
923.000                     5796.2000
923.500                     5762.6000
924.000                     5815.0000
924.500                     5727.8000
925.000                     5778.9000
925.500                     5805.4000
926.000                     5655.6000
926.500                     5638.7000
927.000                     5734.6000
927.500                     5698.8000
928.000                     5693.3000
928.500                     5651.2000
929.000                     5539.2000
929.500                     5697.9000
930.000                     5700.7000
930.500                     5660.3000
931.000                     5684.8000
931.500                     5622.1000
932.000                     5669.4000
932.500                     5689.4000
933.000                     5778.0000
933.500                     5689.0000
934.000                     5618.8000
934.500                     5590.9000
935.000                     5507.7000
935.500                     5456.4000
936.000                     5684.1000
936.500                     5630.5000
937.000                     5619.0000
937.500                     5709.7000
938.000                     5729.7000
938.500                     5720.9000
939.000                     5767.8000
939.500                     5844.4000
940.000                     5678.2000
940.500                     5649.4000
941.000                     5612.2000
941.500                     5496.9000
942.000                     5624.8000
942.500                     5809.7000
943.000                     5671.6000
943.500                     5622.9000
944.000                     5666.1000
944.500                     5789.1000
945.000                     5787.8000
945.500                     5816.1000
946.000                     5711.6000
946.500                     5709.5000
947.000                     5594.7000
947.500                     5670.2000
948.000                     5581.9000
948.500                     5623.4000
949.000                     5661.6000
949.500                     5628.1000
950.000                     5473.7000
950.500                     5715.1000
951.000                     5577.2000
951.500                     5528.1000
952.000                     5704.6000
952.500                     5746.4000
953.000                     5676.6000
953.500                     5789.7000
954.000                     5768.3000
954.500                     5776.3000
955.000                     5948.1000
955.500                     6013.9000
956.000                     6349.9000
956.500                     6763.2000
957.000                     7213.4000
957.500                     7481.3000
958.000                     7702.4000
958.500                     7431.6000
959.000                     6911.1000
959.500                     6290.7000
960.000                     5966.4000
960.500                     5852.2000
961.000                     5692.6000
961.500                     5573.9000
962.000                     5531.3000
962.500                     5491.1000
963.000                     5644.8000
963.500                     5550.7000
964.000                     5530.9000
964.500                     5628.0000
965.000                     5648.1000
965.500                     5658.0000
966.000                     5702.6000
966.500                     5776.9000
967.000                     5878.6000
967.500                     5793.8000
968.000                     5689.2000
968.500                     5621.3000
969.000                     5567.1000
969.500                     5562.3000
970.000                     5512.2000
970.500                     5511.7000
971.000                     5335.4000
971.500                     5518.6000
972.000                     5495.9000
972.500                     5553.1000
973.000                     5589.5000
973.500                     5627.2000
974.000                     5588.0000
974.500                     5632.8000
975.000                     5613.8000
975.500                     5611.7000
976.000                     5601.7000
976.500                     5737.1000
977.000                     5806.6000
977.500                     5832.7000
978.000                     6007.8000
978.500                     5964.6000
979.000                     5858.0000
979.500                     5823.1000
980.000                     5708.2000
980.500                     5515.3000
981.000                     5519.5000
981.500                     5481.2000
982.000                     5393.7000
982.500                     5398.5000
983.000                     5418.6000
983.500                     5329.5000
984.000                     5355.1000
984.500                     5431.9000
985.000                     5474.5000
985.500                     5481.9000
986.000                     5417.9000
986.500                     5369.2000
987.000                     5419.1000
987.500                     5337.3000
988.000                     5268.6000
988.500                     5396.4000
989.000                     5443.3000
989.500                     5340.9000
990.000                     5369.4000
990.500                     5377.3000
991.000                     5338.8000
991.500                     5411.7000
992.000                     5318.5000
992.500                     5178.1000
993.000                     5376.6000
993.500                     5388.9000
994.000                     5370.4000
994.500                     5443.4000
995.000                     5414.2000
995.500                     5349.0000
996.000                     5222.2000
996.500                     5340.2000
997.000                     5530.9000
997.500                     5632.6000
998.000                     5589.9000
998.500                     5636.5000
999.000                     5704.2000
999.500                     5862.6000
1000.000                    5827.6000
1000.500                    5790.7000
1001.000                    5689.4000
1001.500                    5628.8000
1002.000                    5529.5000
1002.500                    5323.0000
1003.000                    5367.1000
1003.500                    5407.4000
1004.000                    5385.8000
1004.500                    5302.1000
1005.000                    5325.4000
1005.500                    5280.5000
1006.000                    5269.4000
1006.500                    5287.8000
1007.000                    5313.3000
1007.500                    5423.6000
1008.000                    5450.5000
1008.500                    5366.8000
1009.000                    5388.4000
1009.500                    5390.7000
1010.000                    5362.1000
1010.500                    5302.4000
1011.000                    5314.3000
1011.500                    5314.1000
1012.000                    5307.6000
1012.500                    5359.4000
1013.000                    5307.0000
1013.500                    5296.0000
1014.000                    5444.6000
1014.500                    5371.2000
1015.000                    5348.8000
1015.500                    5304.0000
1016.000                    5329.2000
1016.500                    5266.9000
1017.000                    5418.8000
1017.500                    5308.8000
1018.000                    5258.8000
1018.500                    5305.4000
1019.000                    5222.7000
1019.500                    5288.3000
1020.000                    5317.1000
1020.500                    5269.6000
1021.000                    5377.6000
1021.500                    5280.0000
1022.000                    5297.6000
1022.500                    5283.0000
1023.000                    5409.7000
1023.500                    5347.1000
1024.000                    5285.6000
1024.500                    5244.4000
1025.000                    5274.0000
1025.500                    5336.8000
1026.000                    5323.2000
1026.500                    5309.0000
1027.000                    5303.3000
1027.500                    5411.0000
1028.000                    5322.6000
1028.500                    5274.1000
1029.000                    5433.8000
1029.500                    5335.5000
1030.000                    5345.2000
1030.500                    5327.8000
1031.000                    5267.7000
1031.500                    5308.2000
1032.000                    5327.5000
1032.500                    5334.6000
1033.000                    5338.0000
1033.500                    5368.6000
1034.000                    5347.9000
1034.500                    5395.2000
1035.000                    5359.4000
1035.500                    5359.9000
1036.000                    5420.1000
1036.500                    5390.1000
1037.000                    5360.2000
1037.500                    5434.8000
1038.000                    5206.6000
1038.500                    5309.2000
1039.000                    5383.7000
1039.500                    5332.9000
1040.000                    5460.6000
1040.500                    5411.4000
1041.000                    5350.1000
1041.500                    5392.7000
1042.000                    5277.6000
1042.500                    5407.0000
1043.000                    5425.3000
1043.500                    5333.7000
1044.000                    5412.6000
1044.500                    5385.6000
1045.000                    5492.4000
1045.500                    5467.2000
1046.000                    5478.5000
1046.500                    5537.2000
1047.000                    5440.5000
1047.500                    5433.4000
1048.000                    5437.5000
1048.500                    5304.8000
1049.000                    5384.1000
1049.500                    5378.0000
1050.000                    5392.5000
1050.500                    5386.2000
1051.000                    5488.5000
1051.500                    5392.6000
1052.000                    5320.2000
1052.500                    5356.8000
1053.000                    5432.6000
1053.500                    5426.7000
1054.000                    5303.5000
1054.500                    5281.7000
1055.000                    5486.8000
1055.500                    5498.5000
1056.000                    5405.1000
1056.500                    5367.2000
1057.000                    5522.2000
1057.500                    5358.2000
1058.000                    5322.0000
1058.500                    5418.1000
1059.000                    5450.7000
1059.500                    5325.2000
1060.000                    5456.7000
1060.500                    5420.9000
1061.000                    5568.3000
1061.500                    5538.5000
1062.000                    5381.6000
1062.500                    5575.1000
1063.000                    5674.6000
1063.500                    5584.5000
1064.000                    5422.4000
1064.500                    5622.2000
1065.000                    5477.9000
1065.500                    5498.6000
1066.000                    5492.5000
1066.500                    5421.2000
1067.000                    5390.7000
1067.500                    5380.3000
1068.000                    5408.5000
1068.500                    5492.6000
1069.000                    5438.7000
1069.500                    5488.9000
1070.000                    5517.3000
1070.500                    5470.3000
1071.000                    5456.0000
1071.500                    5519.7000
1072.000                    5458.9000
1072.500                    5445.4000
1073.000                    5374.6000
1073.500                    5500.8000
1074.000                    5423.9000
1074.500                    5465.7000
1075.000                    5482.2000
1075.500                    5513.4000
1076.000                    5389.1000
1076.500                    5502.0000
1077.000                    5507.7000
1077.500                    5590.8000
1078.000                    5494.8000
1078.500                    5539.7000
1079.000                    5383.2000
1079.500                    5488.4000
1080.000                    5532.8000
1080.500                    5525.2000
1081.000                    5479.9000
1081.500                    5453.2000
1082.000                    5476.6000
1082.500                    5473.4000
1083.000                    5365.4000
1083.500                    5397.0000
1084.000                    5279.2000
1084.500                    5318.4000
1085.000                    5494.2000
1085.500                    5498.5000
1086.000                    5588.7000
1086.500                    5571.2000
1087.000                    5463.3000
1087.500                    5579.4000
1088.000                    5583.3000
1088.500                    5708.7000
1089.000                    5601.9000
1089.500                    5711.2000
1090.000                    5773.4000
1090.500                    5676.2000
1091.000                    5541.3000
1091.500                    5587.8000
1092.000                    5444.3000
1092.500                    5590.9000
1093.000                    5592.4000
1093.500                    5689.1000
1094.000                    5625.3000
1094.500                    5605.8000
1095.000                    5617.7000
1095.500                    5617.1000
1096.000                    5531.6000
1096.500                    5464.9000
1097.000                    5545.9000
1097.500                    5521.5000
1098.000                    5572.9000
1098.500                    5337.2000
1099.000                    5484.8000
1099.500                    5529.8000
1100.000                    5534.9000
1100.500                    5518.1000
1101.000                    5539.8000
1101.500                    5474.5000
1102.000                    5464.4000
1102.500                    5611.7000
1103.000                    5523.9000
1103.500                    5476.6000
1104.000                    5444.0000
1104.500                    5508.6000
1105.000                    5427.0000
1105.500                    5528.7000
1106.000                    5527.4000
1106.500                    5529.4000
1107.000                    5618.0000
1107.500                    5492.9000
1108.000                    5514.7000
1108.500                    5556.8000
1109.000                    5539.9000
1109.500                    5665.7000
1110.000                    5677.1000
1110.500                    5609.9000
1111.000                    5506.1000
1111.500                    5185.8000
1112.000                    5082.7000
1112.500                    5056.9000
1113.000                    5008.2000
1113.500                    4942.1000
1114.000                    4887.5000
1114.500                    4856.4000
1115.000                    4861.8000
1115.500                    4775.3000
1116.000                    4875.4000
1116.500                    4790.5000
1117.000                    4892.1000
1117.500                    4872.0000
1118.000                    5073.7000
1118.500                    4920.5000
1119.000                    5012.6000
1119.500                    5175.5000
1120.000                    5411.0000
1120.500                    5784.3000
1121.000                    6429.5000
1121.500                    7305.5000
1122.000                    8142.6000
1122.500                    8900.7000
1123.000                    8873.0000
1123.500                    8314.3000
1124.000                    7755.5000
1124.500                    7218.0000
1125.000                    6814.7000
1125.500                    6643.8000
1126.000                    6116.9000
1126.500                    5579.8000
1127.000                    5077.3000
1127.500                    4870.3000
1128.000                    4799.9000
1128.500                    4715.5000
1129.000                    4658.8000
1129.500                    4715.1000
1130.000                    4821.9000
1130.500                    4927.7000
1131.000                    4978.5000
1131.500                    4863.1000
1132.000                    4945.8000
1132.500                    4937.7000
1133.000                    4984.7000
1133.500                    4823.0000
1134.000                    4729.5000
1134.500                    4727.5000
1135.000                    4708.4000
1135.500                    4740.6000
1136.000                    4557.4000
1136.500                    4526.6000
1137.000                    4574.1000
1137.500                    4576.4000
1138.000                    4523.0000
1138.500                    4610.1000
1139.000                    4596.0000
1139.500                    4711.9000
1140.000                    4665.8000
1140.500                    4665.3000
1141.000                    4659.1000
1141.500                    4508.6000
1142.000                    4371.2000
1142.500                    4342.2000
1143.000                    4374.4000
1143.500                    4348.1000
1144.000                    4467.6000
1144.500                    4267.1000
1145.000                    4385.0000
1145.500                    4350.1000
1146.000                    4333.7000
1146.500                    4250.8000
1147.000                    4344.7000
1147.500                    4283.8000
1148.000                    4313.2000
1148.500                    4374.4000
1149.000                    4344.7000
1149.500                    4283.1000
1150.000                    4390.8000
1150.500                    4350.7000
1151.000                    4267.1000
1151.500                    4304.9000
1152.000                    4280.9000
1152.500                    4380.4000
1153.000                    4365.7000
1153.500                    4425.3000
1154.000                    4453.1000
1154.500                    4578.2000
1155.000                    4586.5000
1155.500                    4396.6000
1156.000                    4260.5000
1156.500                    4179.7000
1157.000                    4027.3000
1157.500                    3935.6000
1158.000                    3786.2000
1158.500                    3810.1000
1159.000                    3806.7000
1159.500                    3801.7000
1160.000                    3779.0000
1160.500                    3791.1000
1161.000                    3741.0000
1161.500                    3628.1000
1162.000                    3698.0000
1162.500                    3786.1000
1163.000                    3725.3000
1163.500                    3793.9000
1164.000                    3892.0000
1164.500                    3814.5000
1165.000                    4124.2000
1165.500                    4551.8000
1166.000                    5291.4000
1166.500                    6367.6000
1167.000                    7261.9000
1167.500                    7688.4000
1168.000                    7228.6000
1168.500                    6239.9000
1169.000                    5369.9000
1169.500                    5176.5000
1170.000                    5139.7000
1170.500                    5133.9000
1171.000                    4698.4000
1171.500                    4152.6000
1172.000                    3658.1000
1172.500                    3556.2000
1173.000                    3483.2000
1173.500                    3514.1000
1174.000                    3557.3000
1174.500                    3626.0000
1175.000                    3707.9000
1175.500                    3783.4000
1176.000                    3908.8000
1176.500                    3801.9000
1177.000                    3781.8000
1177.500                    3839.3000
1178.000                    3739.6000
1178.500                    3863.1000
1179.000                    3706.0000
1179.500                    3664.8000
1180.000                    3549.7000
1180.500                    3610.1000
1181.000                    3491.9000
1181.500                    3501.5000
1182.000                    3481.1000
1182.500                    3452.2000
1183.000                    3418.5000
1183.500                    3503.0000
1184.000                    3427.1000
1184.500                    3404.2000
1185.000                    3346.1000
1185.500                    3441.2000
1186.000                    3377.0000
1186.500                    3407.2000
1187.000                    3459.1000
1187.500                    3389.8000
1188.000                    3457.5000
1188.500                    3395.3000
1189.000                    3442.7000
1189.500                    3421.4000
1190.000                    3473.0000
1190.500                    3462.9000
1191.000                    3468.7000
1191.500                    3414.8000
1192.000                    3390.1000
1192.500                    3385.6000
1193.000                    3394.0000
1193.500                    3411.3000
1194.000                    3412.8000
1194.500                    3328.4000
1195.000                    3428.3000
1195.500                    3443.0000
1196.000                    3552.3000
1196.500                    3519.7000
1197.000                    3503.8000
1197.500                    3473.8000
1198.000                    3464.8000
1198.500                    3520.7000
1199.000                    3417.3000
1199.500                    3439.7000
1200.000                    3421.1000
1200.500                    3375.8000
1201.000                    3277.1000
1201.500                    3321.0000
1202.000                    3354.0000
1202.500                    3394.6000
1203.000                    3392.5000
1203.500                    3437.0000
1204.000                    3441.6000
1204.500                    3384.4000
1205.000                    3347.7000
1205.500                    3335.9000
1206.000                    3371.7000
1206.500                    3466.9000
1207.000                    3419.9000
1207.500                    3374.1000
1208.000                    3400.2000
1208.500                    3420.9000
1209.000                    3483.0000
1209.500                    3351.6000
1210.000                    3392.5000
1210.500                    3379.3000
1211.000                    3470.6000
1211.500                    3470.7000
1212.000                    3489.8000
1212.500                    3422.7000
1213.000                    3412.6000
1213.500                    3491.1000
1214.000                    3537.8000
1214.500                    3656.7000
1215.000                    3658.7000
1215.500                    3669.7000
1216.000                    3729.4000
1216.500                    3758.6000
1217.000                    3982.1000
1217.500                    3994.0000
1218.000                    4125.3000
1218.500                    4133.0000
1219.000                    4016.9000
1219.500                    3849.1000
1220.000                    3696.2000
1220.500                    3625.4000
1221.000                    3515.2000
1221.500                    3381.6000
1222.000                    3460.8000
1222.500                    3374.3000
1223.000                    3416.9000
1223.500                    3377.9000
1224.000                    3342.2000
1224.500                    3369.8000
1225.000                    3450.8000
1225.500                    3424.9000
1226.000                    3241.8000
1226.500                    3334.2000
1227.000                    3335.3000
1227.500                    3347.8000
1228.000                    3416.3000
1228.500                    3410.3000
1229.000                    3386.8000
1229.500                    3464.5000
1230.000                    3489.4000
1230.500                    3525.4000
1231.000                    3579.8000
1231.500                    3508.3000
1232.000                    3594.2000
1232.500                    3626.6000
1233.000                    3605.4000
1233.500                    3550.5000
1234.000                    3481.2000
1234.500                    3520.1000
1235.000                    3487.2000
1235.500                    3444.2000
1236.000                    3482.7000
1236.500                    3449.6000
1237.000                    3425.3000
1237.500                    3382.3000
1238.000                    3247.1000
1238.500                    3350.8000
1239.000                    3227.1000
1239.500                    3201.5000
1240.000                    3255.3000
1240.500                    3316.3000
1241.000                    3314.9000
1241.500                    3351.7000
1242.000                    3227.0000
1242.500                    3264.7000
1243.000                    3260.4000
1243.500                    3342.5000
1244.000                    3155.5000
1244.500                    3211.6000
1245.000                    3195.2000
1245.500                    3250.6000
1246.000                    3283.9000
1246.500                    3203.2000
1247.000                    3208.2000
1247.500                    3313.2000
1248.000                    3338.0000
1248.500                    3239.9000
1249.000                    3226.9000
1249.500                    3217.3000
1250.000                    3280.0000
1250.500                    3214.2000
1251.000                    3199.4000
1251.500                    3231.1000
1252.000                    3273.4000
1252.500                    3279.1000
1253.000                    3226.2000
1253.500                    3239.9000
1254.000                    3213.8000
1254.500                    3311.0000
1255.000                    3273.5000
1255.500                    3263.8000
1256.000                    3285.1000
1256.500                    3169.8000
1257.000                    3116.3000
1257.500                    3207.1000
1258.000                    3251.8000
1258.500                    3260.3000
1259.000                    3262.5000
1259.500                    3248.0000
1260.000                    3221.6000
