# Transition                      O 1s
# Notes                           
# Creation Comment                
# Energy Mode                     KE
# Start Energy in eV              705
# End Energy in eV                735
# Energy Step in eV               0.1
# Number Of Sweeps                1
# Dwell Time per Sweep in s       0.3
# Analyser Mode                   CAE
# Pass Energy in eV/Retard Ratio  25
# Magnification                   high
# Divide Voltages By 10           off
# Excitation Source               Mg Ka 1253.6 eV normal
# Excitation Energy in eV         1253.6
# Analyser Workfunction in eV     4.5
# Entrance Slit                   6 x 12 mm
# Exit Slit                       5 x 11 mm
# 
# 
# Kinetic Energy in eV         Counts
# --------------------         ------
705.000                     1860.2500
705.100                     1871.5000
705.200                     1887.7500
705.300                     1863.2500
705.400                     1844.0000
705.500                     1838.5000
705.600                     1840.0000
705.700                     1790.7500
705.800                     1769.7500
705.900                     1860.7500
706.000                     1829.5000
706.100                     1845.0000
706.200                     1808.0000
706.300                     1782.7500
706.400                     1756.2500
706.500                     1778.2500
706.600                     1798.0000
706.700                     1892.2500
706.800                     1834.2500
706.900                     1800.2500
707.000                     1753.0000
707.100                     1816.5000
707.200                     1811.2500
707.300                     1907.5000
707.400                     1778.5000
707.500                     1748.7500
707.600                     1822.7500
707.700                     1776.5000
707.800                     1783.2500
707.900                     1814.5000
708.000                     1829.7500
708.100                     1847.2500
708.200                     1883.5000
708.300                     1831.2500
708.400                     1825.0000
708.500                     1874.7500
708.600                     1812.5000
708.700                     1892.7500
708.800                     1873.7500
708.900                     1929.5000
709.000                     1962.5000
709.100                     1936.5000
709.200                     2008.2500
709.300                     2023.0000
709.400                     2066.7500
709.500                     2108.7500
709.600                     2101.7500
709.700                     2207.5000
709.800                     2290.5000
709.900                     2426.2500
710.000                     2489.2500
710.100                     2509.7500
710.200                     2644.2500
710.300                     2803.0000
710.400                     2965.5000
710.500                     3145.0000
710.600                     3279.7500
710.700                     3490.2500
710.800                     3722.7500
710.900                     3960.2500
711.000                     4342.7500
711.100                     4509.0000
711.200                     4787.5000
711.300                     5209.2500
711.400                     5516.5000
711.500                     5963.5000
711.600                     6299.2500
711.700                     6799.7500
711.800                     7251.7500
711.900                     7693.0000
712.000                     8009.5000
712.100                     8488.5000
712.200                     8826.0000
712.300                     9296.2500
712.400                     9354.5000
712.500                     9541.0000
712.600                     9715.2500
712.700                     9714.5000
712.800                     9539.5000
712.900                     9427.2500
713.000                     9249.2500
713.100                     8895.2500
713.200                     8555.0000
713.300                     8259.5000
713.400                     7687.7500
713.500                     7115.0000
713.600                     6630.2500
713.700                     6031.7500
713.800                     5478.7500
713.900                     5158.7500
714.000                     4689.7500
714.100                     4397.7500
714.200                     3913.2500
714.300                     3532.2500
714.400                     3248.5000
714.500                     3040.2500
714.600                     2928.7500
714.700                     2724.0000
714.800                     2502.5000
714.900                     2419.5000
715.000                     2264.5000
715.100                     2207.5000
715.200                     2101.0000
715.300                     2047.0000
715.400                     1979.5000
715.500                     1916.5000
715.600                     1915.7500
715.700                     1901.5000
715.800                     1858.2500
715.900                     1763.7500
716.000                     1782.0000
716.100                     1810.2500
716.200                     1829.0000
716.300                     1803.0000
716.400                     1770.2500
716.500                     1780.2500
716.600                     1745.5000
716.700                     1800.0000
716.800                     1816.5000
716.900                     1743.7500
717.000                     1750.0000
717.100                     1762.2500
717.200                     1870.2500
717.300                     1820.0000
717.400                     1856.0000
717.500                     1767.5000
717.600                     1770.0000
717.700                     1844.5000
717.800                     1773.7500
717.900                     1786.2500
718.000                     1795.5000
718.100                     1708.2500
718.200                     1755.0000
718.300                     1750.2500
718.400                     1748.0000
718.500                     1738.0000
718.600                     1718.0000
718.700                     1753.0000
718.800                     1778.2500
718.900                     1790.0000
719.000                     1822.5000
719.100                     1779.5000
719.200                     1843.0000
719.300                     1781.5000
719.400                     1809.5000
719.500                     1850.0000
719.600                     1859.0000
719.700                     1904.7500
719.800                     1908.7500
719.900                     1960.0000
720.000                     1989.2500
720.100                     1971.0000
720.200                     2033.7500
720.300                     2124.0000
720.400                     2089.2500
720.500                     2114.5000
720.600                     2140.5000
720.700                     2251.0000
720.800                     2313.7500
720.900                     2256.0000
721.000                     2287.2500
721.100                     2295.5000
721.200                     2348.5000
721.300                     2397.7500
721.400                     2334.5000
721.500                     2371.7500
721.600                     2360.0000
721.700                     2382.7500
721.800                     2328.0000
721.900                     2315.2500
722.000                     2290.7500
722.100                     2317.7500
722.200                     2356.7500
722.300                     2348.0000
722.400                     2210.5000
722.500                     2206.2500
722.600                     2219.7500
722.700                     2216.5000
722.800                     2136.7500
722.900                     2111.7500
723.000                     2115.2500
723.100                     2086.0000
723.200                     2072.2500
723.300                     2092.2500
723.400                     2042.0000
723.500                     2047.2500
723.600                     1950.2500
723.700                     1999.7500
723.800                     1935.2500
723.900                     1874.0000
724.000                     1821.2500
724.100                     1823.5000
724.200                     1880.7500
724.300                     1805.0000
724.400                     1798.2500
724.500                     1695.7500
724.600                     1673.2500
724.700                     1628.5000
724.800                     1651.2500
724.900                     1627.5000
725.000                     1620.5000
725.100                     1579.0000
725.200                     1617.2500
725.300                     1608.7500
725.400                     1557.5000
725.500                     1632.7500
725.600                     1561.0000
725.700                     1626.2500
725.800                     1523.7500
725.900                     1552.5000
726.000                     1574.5000
726.100                     1583.5000
726.200                     1522.7500
726.300                     1539.7500
726.400                     1564.7500
726.500                     1614.7500
726.600                     1600.5000
726.700                     1602.7500
726.800                     1559.2500
726.900                     1564.2500
727.000                     1528.0000
727.100                     1577.0000
727.200                     1592.0000
727.300                     1607.2500
727.400                     1583.7500
727.500                     1621.0000
727.600                     1502.2500
727.700                     1518.2500
727.800                     1552.7500
727.900                     1545.0000
728.000                     1588.0000
728.100                     1559.0000
728.200                     1589.0000
728.300                     1557.7500
728.400                     1586.0000
728.500                     1600.5000
728.600                     1613.0000
728.700                     1586.5000
728.800                     1657.7500
728.900                     1643.2500
729.000                     1547.2500
729.100                     1560.5000
729.200                     1592.7500
729.300                     1562.2500
729.400                     1533.7500
729.500                     1591.2500
729.600                     1590.7500
729.700                     1540.2500
729.800                     1546.2500
729.900                     1633.5000
730.000                     1609.2500
730.100                     1602.2500
730.200                     1611.2500
730.300                     1599.5000
730.400                     1598.2500
730.500                     1611.0000
730.600                     1628.5000
730.700                     1528.7500
730.800                     1597.5000
730.900                     1601.0000
731.000                     1619.7500
731.100                     1595.5000
731.200                     1602.7500
731.300                     1651.0000
731.400                     1577.5000
731.500                     1634.2500
731.600                     1573.7500
731.700                     1581.7500
731.800                     1590.0000
731.900                     1608.0000
732.000                     1544.5000
732.100                     1618.7500
732.200                     1591.2500
732.300                     1601.7500
732.400                     1628.5000
732.500                     1564.7500
732.600                     1582.2500
732.700                     1619.0000
732.800                     1591.7500
732.900                     1629.0000
733.000                     1588.0000
733.100                     1559.7500
733.200                     1604.5000
733.300                     1575.0000
733.400                     1580.7500
733.500                     1511.5000
733.600                     1592.7500
733.700                     1638.2500
733.800                     1518.5000
733.900                     1534.5000
734.000                     1624.5000
734.100                     1529.0000
734.200                     1512.5000
734.300                     1516.2500
734.400                     1526.5000
734.500                     1556.7500
734.600                     1517.7500
734.700                     1576.7500
734.800                     1612.7500
734.900                     1599.5000
735.000                     1546.0000
