# Transition                       
# Notes                           
# Creation Comment                
# Energy Mode                     KE
# Start Energy in eV              10
# End Energy in eV                33
# Energy Step in eV               0.05
# Number Of Sweeps                4
# Dwell Time per Sweep in s       0.2
# Analyser Mode                   CAE
# Pass Energy in eV/Retard Ratio  5
# Magnification                   high
# Divide Voltages By 10           on
# Excitation Source               Other
# Excitation Energy in eV         21.2
# Analyser Workfunction in eV     4.5
# Entrance Slit                   6 x 12 mm
# Exit Slit                       5 x 11 mm
# 
# 
# Kinetic Energy in eV         Counts
# --------------------         ------
10.000                      1888.0000
10.050                      1908.3000
10.100                      1873.2000
10.150                      1959.4000
10.200                      1975.4000
10.250                      1976.7000
10.300                      2022.1000
10.350                      2069.8000
10.400                      2064.4000
10.450                      2162.3000
10.500                      2213.6000
10.550                      2121.8000
10.600                      2168.5000
10.650                      2307.1000
10.700                      2315.0000
10.750                      2374.8000
10.800                      2438.6000
10.850                      2473.3000
10.900                      2548.3000
10.950                      2538.0000
11.000                      2691.9000
11.050                      2827.1000
11.100                      2848.9000
11.150                      2892.6000
11.200                      3109.2000
11.250                      3066.3000
11.300                      3213.1000
11.350                      3368.4000
11.400                      3559.8000
11.450                      3652.1000
11.500                      3751.8000
11.550                      3829.5000
11.600                      4064.3000
11.650                      4206.5000
11.700                      4300.1000
11.750                      4487.2000
11.800                      4680.9000
11.850                      4964.4000
11.900                      5111.9000
11.950                      5189.5000
12.000                      5585.8000
12.050                      5660.3000
12.100                      5883.8000
12.150                      6018.1000
12.200                      6536.4000
12.250                      6789.1000
12.300                      7098.3000
12.350                      7234.3000
12.400                      7549.4000
12.450                      7850.5000
12.500                      7976.3000
12.550                      8252.8000
12.600                      8539.2000
12.650                      8920.7000
12.700                      9211.2000
12.750                      9489.5000
12.800                      9864.3000
12.850                     10084.1000
12.900                     10420.5000
12.950                     10792.4000
13.000                     11130.0000
13.050                     11570.2000
13.100                     11852.5000
13.150                     11955.2000
13.200                     12538.1000
13.250                     13042.5000
13.300                     13103.4000
13.350                     13265.9000
13.400                     13459.3000
13.450                     13868.0000
13.500                     14047.7000
13.550                     14066.5000
13.600                     14542.1000
13.650                     14673.6000
13.700                     14914.0000
13.750                     15146.3000
13.800                     15411.8000
13.850                     15897.0000
13.900                     15995.5000
13.950                     16607.5000
14.000                     16874.3000
14.050                     17639.7000
14.100                     18819.8000
14.150                     20016.6000
14.200                     21741.4000
14.250                     24496.4000
14.300                     27942.3000
14.350                     32549.3000
14.400                     40037.5000
14.450                     51310.7000
14.500                     68024.1000
14.550                     95392.6000
14.600                    178003.7000
14.650                    312446.6000
14.700                    881174.9000
14.750                   2332756.9000
14.800                   5147754.2000
14.850                   7728069.5000
14.900                  10122757.3000
14.950                  11581069.4000
15.000                  12645561.4000
15.050                  13621221.2000
15.100                  14196017.9000
15.150                  14584586.3000
15.200                  15012252.9000
15.250                  15200906.0000
15.300                  15295545.4000
15.350                  15057412.7000
15.400                  14888406.9000
15.450                  14802473.5000
15.500                  14261603.1000
15.550                  14074752.0000
15.600                  13778570.1000
15.650                  13223903.5000
15.700                  12752254.6000
15.750                  12541960.1000
15.800                  11801555.8000
15.850                  11428857.4000
15.900                  10873221.8000
15.950                  10274531.5000
16.000                   9790357.1000
16.050                   9311529.6000
16.100                   8905562.0000
16.150                   8443493.6000
16.200                   7893310.3000
16.250                   7492996.4000
16.300                   7081356.7000
16.350                   6731366.1000
16.400                   6383323.0000
16.450                   6087493.4000
16.500                   5815866.7000
16.550                   5540070.3000
16.600                   5300936.6000
16.650                   5055696.8000
16.700                   4800333.6000
16.750                   4610891.6000
16.800                   4433424.2000
16.850                   4248253.8000
16.900                   4073609.4000
16.950                   3901423.4000
17.000                   3765192.1000
17.050                   3616822.4000
17.100                   3473205.4000
17.150                   3347158.4000
17.200                   3220393.7000
17.250                   3115731.3000
17.300                   2995927.4000
17.350                   2899390.7000
17.400                   2812594.8000
17.450                   2714820.3000
17.500                   2626274.5000
17.550                   2544149.2000
17.600                   2461367.7000
17.650                   2393213.4000
17.700                   2318764.1000
17.750                   2251169.5000
17.800                   2187865.9000
17.850                   2125942.0000
17.900                   2064913.1000
17.950                   2009787.6000
18.000                   1956153.6000
18.050                   1903982.5000
18.100                   1849947.8000
18.150                   1798597.9000
18.200                   1750532.6000
18.250                   1700762.4000
18.300                   1655063.6000
18.350                   1610458.4000
18.400                   1564636.5000
18.450                   1522493.7000
18.500                   1479263.8000
18.550                   1438521.1000
18.600                   1401808.1000
18.650                   1364350.9000
18.700                   1329253.8000
18.750                   1294774.3000
18.800                   1262804.5000
18.850                   1231896.2000
18.900                   1202104.7000
18.950                   1171554.4000
19.000                   1145901.4000
19.050                   1121712.4000
19.100                   1099821.0000
19.150                   1077781.0000
19.200                   1056715.6000
19.250                   1035042.1000
19.300                   1016977.5000
19.350                   1000742.5000
19.400                    987550.5000
19.450                    976009.2000
19.500                    962774.8000
19.550                    952026.6000
19.600                    942303.7000
19.650                    934006.1000
19.700                    926979.2000
19.750                    920949.7000
19.800                    914184.5000
19.850                    911470.6000
19.900                    907506.9000
19.950                    902904.1000
20.000                    902363.7000
20.050                    901998.2000
20.100                    902073.4000
20.150                    902715.0000
20.200                    904178.1000
20.250                    906813.5000
20.300                    908343.3000
20.350                    912993.8000
20.400                    917444.2000
20.450                    923653.1000
20.500                    927907.9000
20.550                    933239.4000
20.600                    937686.6000
20.650                    942501.4000
20.700                    947292.0000
20.750                    954090.9000
20.800                    960448.4000
20.850                    966040.5000
20.900                    971167.4000
20.950                    974995.6000
21.000                    979756.6000
21.050                    984429.5000
21.100                    991091.9000
21.150                    999123.6000
21.200                   1007073.1000
21.250                   1016838.3000
21.300                   1029837.1000
21.350                   1043195.3000
21.400                   1058992.1000
21.450                   1076504.2000
21.500                   1098072.8000
21.550                   1122163.8000
21.600                   1146766.5000
21.650                   1170258.8000
21.700                   1195787.2000
21.750                   1222119.8000
21.800                   1250743.9000
21.850                   1275232.7000
21.900                   1299676.2000
21.950                   1324883.2000
22.000                   1346173.4000
22.050                   1369354.3000
22.100                   1388387.7000
22.150                   1405850.5000
22.200                   1421523.8000
22.250                   1446249.9000
22.300                   1450591.2000
22.350                   1461281.3000
22.400                   1468447.5000
22.450                   1474894.1000
22.500                   1481073.1000
22.550                   1485655.7000
22.600                   1489651.2000
22.650                   1493159.5000
22.700                   1492344.0000
22.750                   1493705.6000
22.800                   1492068.5000
22.850                   1490440.7000
22.900                   1487363.2000
22.950                   1485538.3000
23.000                   1479637.9000
23.050                   1474503.0000
23.100                   1471146.7000
23.150                   1466274.8000
23.200                   1461851.3000
23.250                   1457443.4000
23.300                   1449380.7000
23.350                   1442576.2000
23.400                   1437245.9000
23.450                   1428982.6000
23.500                   1422933.8000
23.550                   1413149.6000
23.600                   1405460.1000
23.650                   1394400.1000
23.700                   1386616.0000
23.750                   1376531.5000
23.800                   1366457.5000
23.850                   1355385.8000
23.900                   1341679.2000
23.950                   1330132.8000
24.000                   1318555.8000
24.050                   1306240.0000
24.100                   1291882.6000
24.150                   1280108.6000
24.200                   1264970.2000
24.250                   1252130.4000
24.300                   1238368.0000
24.350                   1223155.8000
24.400                   1210925.3000
24.450                   1195316.9000
24.500                   1180330.8000
24.550                   1165184.0000
24.600                   1152015.4000
24.650                   1139936.8000
24.700                   1128571.5000
24.750                   1114471.7000
24.800                   1105667.4000
24.850                   1095252.7000
24.900                   1083430.3000
24.950                   1072322.2000
25.000                   1062106.5000
25.050                   1051156.8000
25.100                   1039748.6000
25.150                   1026155.7000
25.200                   1015790.4000
25.250                   1003589.4000
25.300                    990680.2000
25.350                    975723.7000
25.400                    959995.5000
25.450                    944544.4000
25.500                    927474.3000
25.550                    909125.1000
25.600                    887688.7000
25.650                    863878.9000
25.700                    839418.8000
25.750                    815277.2000
25.800                    789414.0000
25.850                    763621.7000
25.900                    739856.0000
25.950                    717504.6000
26.000                    696063.2000
26.050                    675990.4000
26.100                    657863.9000
26.150                    641424.3000
26.200                    626825.1000
26.250                    611951.9000
26.300                    599781.4000
26.350                    585843.4000
26.400                    572577.0000
26.450                    561188.8000
26.500                    547363.6000
26.550                    534551.7000
26.600                    521609.5000
26.650                    506664.5000
26.700                    494650.3000
26.750                    478999.3000
26.800                    462989.7000
26.850                    445626.7000
26.900                    428379.5000
26.950                    409312.5000
27.000                    390021.4000
27.050                    369624.0000
27.100                    347510.2000
27.150                    323869.8000
27.200                    300100.2000
27.250                    275678.2000
27.300                    251972.8000
27.350                    230118.3000
27.400                    210102.3000
27.450                    190800.8000
27.500                    175883.9000
27.550                    161962.6000
27.600                    148878.3000
27.650                    139200.7000
27.700                    130131.4000
27.750                    122505.1000
27.800                    116690.4000
27.850                    110570.9000
27.900                    105896.6000
27.950                    101817.6000
28.000                     97680.7000
28.050                     93678.9000
28.100                     90190.1000
28.150                     87262.4000
28.200                     83570.4000
28.250                     80273.9000
28.300                     76716.7000
28.350                     73377.1000
28.400                     70317.0000
28.450                     67616.6000
28.500                     64708.8000
28.550                     62224.8000
28.600                     59729.1000
28.650                     57430.8000
28.700                     55391.2000
28.750                     53257.7000
28.800                     51458.2000
28.850                     49296.5000
28.900                     47399.2000
28.950                     45928.9000
29.000                     43835.8000
29.050                     42068.3000
29.100                     40471.5000
29.150                     38724.8000
29.200                     37100.6000
29.250                     35199.1000
29.300                     33414.5000
29.350                     31923.8000
29.400                     30194.5000
29.450                     28872.8000
29.500                     27264.1000
29.550                     25820.0000
29.600                     24454.7000
29.650                     23411.2000
29.700                     21903.6000
29.750                     20490.8000
29.800                     19327.6000
29.850                     17979.8000
29.900                     16933.3000
29.950                     15540.8000
30.000                     14452.7000
30.050                     13629.3000
30.100                     12445.5000
30.150                     11563.5000
30.200                     10537.8000
30.250                      9939.1000
30.300                      9186.0000
30.350                      8561.4000
30.400                      7963.5000
30.450                      7509.5000
30.500                      7223.7000
30.550                      6874.2000
30.600                      6469.9000
30.650                      6335.1000
30.700                      6053.9000
30.750                      5859.0000
30.800                      5554.3000
30.850                      5421.5000
30.900                      5198.7000
30.950                      5076.1000
31.000                      4813.4000
31.050                      4644.7000
31.100                      4496.3000
31.150                      4212.6000
31.200                      3958.4000
31.250                      3714.5000
31.300                      3430.6000
31.350                      2993.8000
31.400                      2780.2000
31.450                      2704.0000
31.500                      2537.8000
31.550                      2515.9000
31.600                      2484.8000
31.650                      2440.4000
31.700                      2429.4000
31.750                      2308.4000
31.800                      2310.2000
31.850                      2259.1000
31.900                      2126.0000
31.950                      2038.3000
32.000                      2015.6000
32.050                      1949.2000
32.100                      1888.0000
32.150                      1818.5000
32.200                      1822.7000
32.250                      1759.8000
32.300                      1751.5000
32.350                      1719.5000
32.400                      1765.0000
32.450                      1692.7000
32.500                      1673.1000
32.550                      1661.2000
32.600                      1633.5000
32.650                      1610.6000
32.700                      1586.6000
32.750                      1510.5000
32.800                      1518.5000
32.850                      1591.7000
32.900                      1463.3000
32.950                      1404.9000
33.000                      1438.5000
