# Transition                      VB low
# Notes                           
# Creation Comment                
# Energy Mode                     KE
# Start Energy in eV              10
# End Energy in eV                23
# Energy Step in eV               0.05
# Number Of Sweeps                5
# Dwell Time per Sweep in s       0.2
# Analyser Mode                   CAE
# Pass Energy in eV/Retard Ratio  5
# Magnification                   low
# Divide Voltages By 10           on
# Excitation Source               Mg Ka 1253.6 eV normal
# Excitation Energy in eV         1253.6
# Analyser Workfunction in eV     4.5
# Entrance Slit                   6 x 12 mm
# Exit Slit                       5 x 11 mm
# 
# 
# Kinetic Energy in eV         Counts
# --------------------         ------
10.000                    534517.2000
10.050                    535658.9000
10.100                    536302.9000
10.150                    537258.7000
10.200                    537900.8000
10.250                    540368.0000
10.300                    540365.3000
10.350                    541350.9000
10.400                    541516.4000
10.450                    541718.5000
10.500                    543079.9000
10.550                    542557.9000
10.600                    543425.7000
10.650                    542969.3000
10.700                    542487.1000
10.750                    542897.7000
10.800                    543107.5000
10.850                    543820.4000
10.900                    544394.0000
10.950                    545453.4000
11.000                    545918.5000
11.050                    545011.9000
11.100                    546153.3000
11.150                    546535.3000
11.200                    547360.7000
11.250                    546244.0000
11.300                    546700.8000
11.350                    548739.1000
11.400                    548498.6000
11.450                    549617.6000
11.500                    550299.7000
11.550                    550832.7000
11.600                    550675.1000
11.650                    551575.3000
11.700                    552830.9000
11.750                    552933.3000
11.800                    552181.6000
11.850                    552817.9000
11.900                    553154.8000
11.950                    554728.5000
12.000                    553939.3000
12.050                    554106.9000
12.100                    556844.6000
12.150                    555353.9000
12.200                    558260.4000
12.250                    559024.5000
12.300                    559117.9000
12.350                    560450.3000
12.400                    561347.2000
12.450                    561051.1000
12.500                    560303.9000
12.550                    559259.4000
12.600                    558032.9000
12.650                    556707.4000
12.700                    555203.1000
12.750                    554680.0000
12.800                    553158.2000
12.850                    551142.2000
12.900                    549430.2000
12.950                    547555.7000
13.000                    544302.6000
13.050                    541399.9000
13.100                    540847.0000
13.150                    540608.4000
13.200                    536837.0000
13.250                    535326.4000
13.300                    532707.8000
13.350                    530486.6000
13.400                    528890.1000
13.450                    526162.2000
13.500                    524018.0000
13.550                    522578.8000
13.600                    520519.6000
13.650                    518461.2000
13.700                    516803.6000
13.750                    515467.9000
13.800                    512908.0000
13.850                    510487.3000
13.900                    508491.7000
13.950                    506559.2000
14.000                    504650.7000
14.050                    502748.4000
14.100                    500567.2000
14.150                    497608.4000
14.200                    495275.3000
14.250                    493229.8000
14.300                    492942.3000
14.350                    491608.8000
14.400                    489878.8000
14.450                    486467.4000
14.500                    486215.6000
14.550                    484794.7000
14.600                    484348.0000
14.650                    483350.4000
14.700                    480633.3000
14.750                    479639.3000
14.800                    477971.9000
14.850                    477297.2000
14.900                    476401.2000
14.950                    474482.4000
15.000                    474190.2000
15.050                    473313.2000
15.100                    471539.5000
15.150                    470093.6000
15.200                    469539.1000
15.250                    468476.2000
15.300                    466734.1000
15.350                    465232.0000
15.400                    462606.1000
15.450                    460925.7000
15.500                    458349.9000
15.550                    456598.7000
15.600                    453694.5000
15.650                    452172.4000
15.700                    449675.0000
15.750                    447256.0000
15.800                    445226.9000
15.850                    441738.1000
15.900                    437887.6000
15.950                    436293.1000
16.000                    433771.4000
16.050                    430521.9000
16.100                    427348.6000
16.150                    424565.0000
16.200                    422811.2000
16.250                    418927.0000
16.300                    416429.7000
16.350                    412171.1000
16.400                    408132.1000
16.450                    404379.3000
16.500                    400175.0000
16.550                    394170.9000
16.600                    389169.2000
16.650                    381854.9000
16.700                    374160.1000
16.750                    366665.3000
16.800                    358068.6000
16.850                    347833.7000
16.900                    335862.1000
16.950                    323898.0000
17.000                    310785.6000
17.050                    295526.7000
17.100                    279821.7000
17.150                    263242.7000
17.200                    246703.6000
17.250                    230292.0000
17.300                    212683.8000
17.350                    194338.5000
17.400                    177194.2000
17.450                    161175.7000
17.500                    145557.7000
17.550                    130620.5000
17.600                    117214.9000
17.650                    105974.2000
17.700                     95466.7000
17.750                     87342.6000
17.800                     79758.4000
17.850                     73974.4000
17.900                     68440.2000
17.950                     64594.8000
18.000                     61126.9000
18.050                     58223.3000
18.100                     55199.3000
18.150                     52893.4000
18.200                     50669.5000
18.250                     48822.2000
18.300                     46959.7000
18.350                     44820.2000
18.400                     42810.6000
18.450                     40982.0000
18.500                     38899.1000
18.550                     37242.5000
18.600                     35191.1000
18.650                     33296.2000
18.700                     31343.9000
18.750                     29759.0000
18.800                     27970.2000
18.850                     26385.3000
18.900                     24566.4000
18.950                     22922.2000
19.000                     21277.3000
19.050                     19475.1000
19.100                     17851.3000
19.150                     16605.7000
19.200                     15155.5000
19.250                     13964.9000
19.300                     12662.2000
19.350                     11681.7000
19.400                     10430.1000
19.450                      9386.9000
19.500                      8622.1000
19.550                      7813.1000
19.600                      7132.9000
19.650                      6393.7000
19.700                      5899.4000
19.750                      5458.9000
19.800                      5134.1000
19.850                      4711.4000
19.900                      4325.1000
19.950                      3913.7000
20.000                      3784.5000
20.050                      3579.9000
20.100                      3384.9000
20.150                      3152.6000
20.200                      3093.2000
20.250                      2855.5000
20.300                      2726.3000
20.350                      2645.3000
20.400                      2559.2000
20.450                      2460.6000
20.500                      2410.9000
20.550                      2391.4000
20.600                      2215.0000
20.650                      2284.6000
20.700                      2199.5000
20.750                      2176.4000
20.800                      2202.3000
20.850                      2199.2000
20.900                      2231.8000
20.950                      2228.5000
21.000                      2261.0000
21.050                      2282.7000
21.100                      2256.4000
21.150                      2318.3000
21.200                      2366.6000
21.250                      2413.7000
21.300                      2430.5000
21.350                      2499.5000
21.400                      2567.2000
21.450                      2581.9000
21.500                      2593.1000
21.550                      2595.2000
21.600                      2716.4000
21.650                      2806.0000
21.700                      2784.8000
21.750                      2819.7000
21.800                      2865.9000
21.850                      2876.8000
21.900                      2868.0000
21.950                      2941.9000
22.000                      2945.1000
22.050                      2947.4000
22.100                      3001.4000
22.150                      2999.1000
22.200                      2927.2000
22.250                      2936.5000
22.300                      2880.6000
22.350                      2872.8000
22.400                      2911.4000
22.450                      2776.5000
22.500                      2722.9000
22.550                      2760.8000
22.600                      2651.9000
22.650                      2591.4000
22.700                      2466.3000
22.750                      2413.3000
22.800                      2321.1000
22.850                      2207.3000
22.900                      2097.1000
22.950                      1979.9000
23.000                      1948.6000
