# Transition                      In 3d
# Notes                           
# Creation Comment                
# Energy Mode                     KE
# Start Energy in eV              793.6
# End Energy in eV                833.6
# Energy Step in eV               0.1
# Number Of Sweeps                4
# Dwell Time per Sweep in s       0.3
# Analyser Mode                   CAE
# Pass Energy in eV/Retard Ratio  25
# Magnification                   high
# Divide Voltages By 10           off
# Excitation Source               Mg Ka 1253.6 eV normal
# Excitation Energy in eV         1253.6
# Analyser Workfunction in eV     4.5
# Entrance Slit                   6 x 12 mm
# Exit Slit                       5 x 11 mm
# 
# 
# Kinetic Energy in eV         Counts
# --------------------         ------
793.600                    19511.0000
793.700                    19480.5000
793.800                    19496.7500
793.900                    19391.5000
794.000                    19406.2500
794.100                    18980.5000
794.200                    18978.0000
794.300                    19003.2500
794.400                    18721.0000
794.500                    18658.7500
794.600                    18751.5000
794.700                    18729.5000
794.800                    18529.0000
794.900                    18452.2500
795.000                    18375.2500
795.100                    18416.0000
795.200                    18450.2500
795.300                    18217.5000
795.400                    18208.5000
795.500                    18092.5000
795.600                    17864.0000
795.700                    17983.0000
795.800                    17845.5000
795.900                    17818.0000
796.000                    18024.2500
796.100                    17605.0000
796.200                    17386.5000
796.300                    17613.7500
796.400                    17377.0000
796.500                    17578.2500
796.600                    17503.2500
796.700                    17232.0000
796.800                    17054.7500
796.900                    17027.5000
797.000                    17105.7500
797.100                    17187.7500
797.200                    17118.2500
797.300                    17355.2500
797.400                    17213.7500
797.500                    16990.2500
797.600                    17024.7500
797.700                    17082.5000
797.800                    17033.5000
797.900                    17020.7500
798.000                    17073.0000
798.100                    17209.7500
798.200                    17350.2500
798.300                    17604.2500
798.400                    17627.7500
798.500                    17829.7500
798.600                    18284.2500
798.700                    18667.2500
798.800                    18950.7500
798.900                    19408.2500
799.000                    19938.5000
799.100                    20815.0000
799.200                    21652.0000
799.300                    23031.0000
799.400                    24132.0000
799.500                    25812.2500
799.600                    27417.0000
799.700                    29608.2500
799.800                    31790.7500
799.900                    34452.0000
800.000                    37176.0000
800.100                    40187.2500
800.200                    43184.7500
800.300                    46448.0000
800.400                    49534.5000
800.500                    52493.0000
800.600                    55445.2500
800.700                    58126.0000
800.800                    59550.0000
800.900                    61480.7500
801.000                    62155.7500
801.100                    62502.5000
801.200                    62401.5000
801.300                    61223.7500
801.400                    60021.0000
801.500                    57123.5000
801.600                    54176.7500
801.700                    51030.7500
801.800                    47259.5000
801.900                    43327.7500
802.000                    39594.2500
802.100                    35737.7500
802.200                    31782.7500
802.300                    29102.0000
802.400                    25948.2500
802.500                    23837.7500
802.600                    21360.5000
802.700                    19896.2500
802.800                    18547.0000
802.900                    17487.5000
803.000                    16794.0000
803.100                    15732.2500
803.200                    15203.7500
803.300                    14870.5000
803.400                    14570.2500
803.500                    14198.0000
803.600                    13941.7500
803.700                    13491.7500
803.800                    13182.0000
803.900                    13077.7500
804.000                    12807.2500
804.100                    12866.5000
804.200                    12635.2500
804.300                    12550.2500
804.400                    12516.0000
804.500                    12544.7500
804.600                    12615.0000
804.700                    12379.7500
804.800                    12613.2500
804.900                    12593.2500
805.000                    12530.5000
805.100                    12597.0000
805.200                    12499.0000
805.300                    12787.5000
805.400                    12847.0000
805.500                    13121.7500
805.600                    13417.2500
805.700                    13534.7500
805.800                    13754.7500
805.900                    13847.2500
806.000                    14474.7500
806.100                    15066.0000
806.200                    15536.7500
806.300                    16171.7500
806.400                    16845.2500
806.500                    17870.7500
806.600                    19097.7500
806.700                    20357.2500
806.800                    21763.2500
806.900                    23688.5000
807.000                    25898.7500
807.100                    28540.5000
807.200                    31475.0000
807.300                    34980.2500
807.400                    38134.0000
807.500                    42164.0000
807.600                    46476.5000
807.700                    50918.7500
807.800                    55424.2500
807.900                    60551.7500
808.000                    64472.2500
808.100                    68963.7500
808.200                    73420.5000
808.300                    76746.0000
808.400                    79685.2500
808.500                    82313.7500
808.600                    83170.0000
808.700                    83776.2500
808.800                    82853.5000
808.900                    81487.7500
809.000                    78874.7500
809.100                    75311.5000
809.200                    71360.0000
809.300                    65946.0000
809.400                    60730.0000
809.500                    55307.5000
809.600                    50084.5000
809.700                    44478.5000
809.800                    39603.7500
809.900                    35103.7500
810.000                    31394.0000
810.100                    28311.7500
810.200                    25639.2500
810.300                    23203.2500
810.400                    21316.2500
810.500                    20018.5000
810.600                    18778.2500
810.700                    17669.5000
810.800                    16854.2500
810.900                    16240.2500
811.000                    15514.5000
811.100                    15174.0000
811.200                    14909.5000
811.300                    14239.0000
811.400                    14007.0000
811.500                    13827.2500
811.600                    13425.7500
811.700                    13206.2500
811.800                    12732.2500
811.900                    12427.0000
812.000                    12343.7500
812.100                    11861.5000
812.200                    11560.5000
812.300                    11313.2500
812.400                    10880.5000
812.500                    10726.2500
812.600                    10423.2500
812.700                    10294.2500
812.800                    10152.2500
812.900                    10194.7500
813.000                     9896.0000
813.100                     9661.5000
813.200                     9642.2500
813.300                     9659.5000
813.400                     9511.2500
813.500                     9573.2500
813.600                     9531.5000
813.700                     9342.0000
813.800                     9338.5000
813.900                     9312.0000
814.000                     9215.7500
814.100                     9025.2500
814.200                     9057.5000
814.300                     8999.0000
814.400                     8913.5000
814.500                     8765.5000
814.600                     8866.2500
814.700                     8872.0000
814.800                     8816.2500
814.900                     8825.7500
815.000                     8892.7500
815.100                     8858.7500
815.200                     8851.5000
815.300                     9158.2500
815.400                     8922.7500
815.500                     9091.7500
815.600                     9419.5000
815.700                     9642.0000
815.800                     9780.0000
815.900                    10115.0000
816.000                    10396.5000
816.100                    10700.0000
816.200                    10992.5000
816.300                    11442.2500
816.400                    11731.5000
816.500                    12058.5000
816.600                    12430.7500
816.700                    12654.0000
816.800                    12882.2500
816.900                    13269.0000
817.000                    13484.5000
817.100                    13680.7500
817.200                    13588.5000
817.300                    13751.2500
817.400                    13724.5000
817.500                    13652.2500
817.600                    13496.2500
817.700                    13333.5000
817.800                    13497.5000
817.900                    13291.0000
818.000                    13232.5000
818.100                    12944.5000
818.200                    13090.7500
818.300                    12791.7500
818.400                    12676.0000
818.500                    12672.5000
818.600                    12669.5000
818.700                    12668.0000
818.800                    12530.2500
818.900                    12220.7500
819.000                    12333.5000
819.100                    11954.2500
819.200                    11909.2500
819.300                    11673.0000
819.400                    11650.5000
819.500                    11092.0000
819.600                    10634.2500
819.700                    10542.0000
819.800                    10276.5000
819.900                     9998.2500
820.000                     9694.2500
820.100                     9219.2500
820.200                     9036.0000
820.300                     8715.5000
820.400                     8618.2500
820.500                     8324.5000
820.600                     8222.7500
820.700                     8104.2500
820.800                     8097.2500
820.900                     7942.2500
821.000                     7970.2500
821.100                     7787.7500
821.200                     7722.5000
821.300                     7599.0000
821.400                     7596.0000
821.500                     7658.7500
821.600                     7572.2500
821.700                     7556.0000
821.800                     7505.2500
821.900                     7411.2500
822.000                     7385.5000
822.100                     7315.7500
822.200                     7270.7500
822.300                     7187.7500
822.400                     7359.7500
822.500                     7280.5000
822.600                     7287.2500
822.700                     7269.0000
822.800                     7206.5000
822.900                     7168.2500
823.000                     7204.2500
823.100                     7213.0000
823.200                     7190.7500
823.300                     7002.7500
823.400                     7093.0000
823.500                     7105.7500
823.600                     7094.0000
823.700                     7031.7500
823.800                     6968.0000
823.900                     7082.7500
824.000                     7105.7500
824.100                     7125.5000
824.200                     7121.5000
824.300                     7095.0000
824.400                     7051.7500
824.500                     6982.0000
824.600                     7030.2500
824.700                     7140.2500
824.800                     7057.7500
824.900                     7256.2500
825.000                     7043.0000
825.100                     7035.0000
825.200                     7088.5000
825.300                     7237.7500
825.400                     7122.0000
825.500                     7138.0000
825.600                     7220.0000
825.700                     7155.0000
825.800                     7261.0000
825.900                     7191.0000
826.000                     7320.7500
826.100                     7163.0000
826.200                     7178.2500
826.300                     7206.2500
826.400                     7217.2500
826.500                     7272.7500
826.600                     7212.5000
826.700                     7197.7500
826.800                     7154.2500
826.900                     7150.5000
827.000                     7182.5000
827.100                     7104.7500
827.200                     6997.5000
827.300                     7034.5000
827.400                     7011.5000
827.500                     6982.7500
827.600                     7022.7500
827.700                     7003.7500
827.800                     7067.5000
827.900                     6953.0000
828.000                     7124.0000
828.100                     7116.0000
828.200                     7033.7500
828.300                     7074.5000
828.400                     7082.0000
828.500                     7093.2500
828.600                     7134.7500
828.700                     7166.2500
828.800                     7070.2500
828.900                     7055.7500
829.000                     7035.7500
829.100                     7099.2500
829.200                     7082.5000
829.300                     7188.7500
829.400                     7181.5000
829.500                     7132.2500
829.600                     7021.7500
829.700                     7013.5000
829.800                     7078.0000
829.900                     6937.5000
830.000                     7105.2500
830.100                     6880.7500
830.200                     6770.0000
830.300                     6958.5000
830.400                     6823.2500
830.500                     6777.0000
830.600                     6863.5000
830.700                     6886.2500
830.800                     6877.7500
830.900                     6806.0000
831.000                     6727.5000
831.100                     6758.2500
831.200                     6634.0000
831.300                     6710.0000
831.400                     6511.7500
831.500                     6633.7500
831.600                     6700.7500
831.700                     6666.2500
831.800                     6583.0000
831.900                     6652.2500
832.000                     6659.2500
832.100                     6714.7500
832.200                     6703.5000
832.300                     6642.2500
832.400                     6684.5000
832.500                     6694.7500
832.600                     6659.5000
832.700                     6662.5000
832.800                     6546.7500
832.900                     6547.5000
833.000                     6545.5000
833.100                     6712.0000
833.200                     6592.5000
833.300                     6594.2500
833.400                     6653.7500
833.500                     6691.0000
833.600                     6557.0000
