# Transition                      wide 
# Notes                           
# Creation Comment                
# Energy Mode                     KE
# Start Energy in eV              150
# End Energy in eV                1260
# Energy Step in eV               0.5
# Number Of Sweeps                1
# Dwell Time per Sweep in s       0.2
# Analyser Mode                   CAE
# Pass Energy in eV/Retard Ratio  50
# Magnification                   high
# Divide Voltages By 10           off
# Excitation Source               Mg Ka 1253.6 eV normal
# Excitation Energy in eV         1253.6
# Analyser Workfunction in eV     4.5
# Entrance Slit                   6 x 12 mm
# Exit Slit                       5 x 11 mm
# 
# 
# Kinetic Energy in eV         Counts
# --------------------         ------
150.000                    92533.6000
150.500                    91962.4000
151.000                    92000.0000
151.500                    91720.3000
152.000                    92057.7000
152.500                    92518.2000
153.000                    92237.9000
153.500                    92395.0000
154.000                    91917.6000
154.500                    91763.9000
155.000                    91790.7000
155.500                    91570.9000
156.000                    92046.5000
156.500                    92265.9000
157.000                    91871.6000
157.500                    91616.1000
158.000                    91418.1000
158.500                    91704.7000
159.000                    91820.2000
159.500                    91859.4000
160.000                    91933.4000
160.500                    91088.8000
161.000                    91004.8000
161.500                    90332.2000
162.000                    90458.0000
162.500                    90561.3000
163.000                    90138.7000
163.500                    89545.7000
164.000                    88889.1000
164.500                    88784.3000
165.000                    88610.9000
165.500                    88071.2000
166.000                    87903.1000
166.500                    87802.7000
167.000                    87187.8000
167.500                    87884.7000
168.000                    87315.6000
168.500                    87326.2000
169.000                    87073.7000
169.500                    86561.7000
170.000                    86734.3000
170.500                    86323.7000
171.000                    85947.6000
171.500                    85724.3000
172.000                    85725.0000
172.500                    85759.6000
173.000                    85457.8000
173.500                    85385.9000
174.000                    85484.3000
174.500                    85348.3000
175.000                    85017.6000
175.500                    84975.1000
176.000                    84978.5000
176.500                    84440.5000
177.000                    84843.6000
177.500                    84678.0000
178.000                    84359.3000
178.500                    84826.2000
179.000                    84420.5000
179.500                    85096.5000
180.000                    84776.8000
180.500                    84379.6000
181.000                    85207.6000
181.500                    85253.1000
182.000                    84615.6000
182.500                    83665.8000
183.000                    83725.3000
183.500                    83295.5000
184.000                    83376.0000
184.500                    83149.4000
185.000                    82905.6000
185.500                    83381.0000
186.000                    82841.0000
186.500                    82648.3000
187.000                    83018.8000
187.500                    82745.2000
188.000                    82515.5000
188.500                    82341.7000
189.000                    81636.9000
189.500                    82404.3000
190.000                    81605.4000
190.500                    81807.5000
191.000                    82516.1000
191.500                    81900.7000
192.000                    81554.2000
192.500                    81556.7000
193.000                    81379.6000
193.500                    81634.0000
194.000                    80956.8000
194.500                    80108.0000
195.000                    80368.1000
195.500                    79929.3000
196.000                    79300.2000
196.500                    79440.3000
197.000                    79746.0000
197.500                    79746.4000
198.000                    79488.3000
198.500                    79763.0000
199.000                    80092.6000
199.500                    79711.4000
200.000                    79232.5000
200.500                    78999.6000
201.000                    78911.6000
201.500                    78519.1000
202.000                    78321.2000
202.500                    78619.6000
203.000                    78719.3000
203.500                    78806.9000
204.000                    78450.8000
204.500                    78530.9000
205.000                    78379.7000
205.500                    78206.4000
206.000                    78156.4000
206.500                    78460.3000
207.000                    78181.0000
207.500                    78236.3000
208.000                    78286.4000
208.500                    78379.3000
209.000                    78127.8000
209.500                    78477.6000
210.000                    78641.0000
210.500                    78152.3000
211.000                    77849.2000
211.500                    78126.5000
212.000                    78156.2000
212.500                    78155.0000
213.000                    77889.6000
213.500                    77943.7000
214.000                    77859.4000
214.500                    78348.5000
215.000                    78293.5000
215.500                    77846.0000
216.000                    77499.4000
216.500                    77688.5000
217.000                    77783.6000
217.500                    76883.1000
218.000                    76997.5000
218.500                    77146.8000
219.000                    76689.8000
219.500                    76241.7000
220.000                    75985.0000
220.500                    76007.6000
221.000                    75907.0000
221.500                    75785.9000
222.000                    76121.3000
222.500                    76070.6000
223.000                    75969.9000
223.500                    76128.4000
224.000                    75603.8000
224.500                    75485.3000
225.000                    75350.7000
225.500                    75433.5000
226.000                    75457.6000
226.500                    75988.1000
227.000                    76141.3000
227.500                    76332.3000
228.000                    76282.3000
228.500                    76598.1000
229.000                    76032.2000
229.500                    76188.5000
230.000                    76224.4000
230.500                    75822.2000
231.000                    75871.3000
231.500                    76152.8000
232.000                    75891.2000
232.500                    75756.2000
233.000                    75922.3000
233.500                    75333.2000
234.000                    75323.1000
234.500                    75262.9000
235.000                    74741.6000
235.500                    74612.6000
236.000                    74285.8000
236.500                    74613.2000
237.000                    75085.0000
237.500                    75274.5000
238.000                    75003.5000
238.500                    74812.3000
239.000                    74655.3000
239.500                    75158.9000
240.000                    75031.8000
240.500                    75185.6000
241.000                    74402.7000
241.500                    73854.9000
242.000                    73901.7000
242.500                    73934.4000
243.000                    73739.4000
243.500                    73865.8000
244.000                    73755.9000
244.500                    73581.7000
245.000                    73010.8000
245.500                    73227.5000
246.000                    73417.3000
246.500                    72842.5000
247.000                    73047.3000
247.500                    73129.0000
248.000                    72858.9000
248.500                    71982.7000
249.000                    72520.8000
249.500                    72871.3000
250.000                    72733.9000
250.500                    72556.3000
251.000                    72269.6000
251.500                    72522.7000
252.000                    72711.1000
252.500                    72225.3000
253.000                    72981.3000
253.500                    72801.5000
254.000                    72486.5000
254.500                    72714.4000
255.000                    72879.5000
255.500                    72705.0000
256.000                    72770.2000
256.500                    73168.0000
257.000                    72734.8000
257.500                    72692.0000
258.000                    73264.7000
258.500                    73208.2000
259.000                    73532.8000
259.500                    73343.3000
260.000                    73488.5000
260.500                    74066.6000
261.000                    73772.3000
261.500                    74202.5000
262.000                    73726.1000
262.500                    73993.8000
263.000                    74154.1000
263.500                    73827.8000
264.000                    73806.9000
264.500                    74357.4000
265.000                    73495.4000
265.500                    72953.2000
266.000                    73011.8000
266.500                    72714.7000
267.000                    72784.9000
267.500                    71947.1000
268.000                    71735.3000
268.500                    71169.9000
269.000                    71408.8000
269.500                    70748.6000
270.000                    70258.2000
270.500                    70234.8000
271.000                    70046.0000
271.500                    70143.5000
272.000                    69545.3000
272.500                    69472.6000
273.000                    69294.2000
273.500                    68574.3000
274.000                    68377.4000
274.500                    68267.2000
275.000                    68215.7000
275.500                    67816.5000
276.000                    67731.0000
276.500                    68063.5000
277.000                    68547.1000
277.500                    68327.2000
278.000                    67779.5000
278.500                    68524.7000
279.000                    68240.8000
279.500                    68220.6000
280.000                    67799.4000
280.500                    68084.1000
281.000                    68630.7000
281.500                    67858.0000
282.000                    68484.6000
282.500                    68167.4000
283.000                    68289.1000
283.500                    68556.2000
284.000                    68547.9000
284.500                    68986.7000
285.000                    68430.3000
285.500                    68590.0000
286.000                    68750.2000
286.500                    68555.8000
287.000                    68708.2000
287.500                    68331.0000
288.000                    68282.5000
288.500                    68324.9000
289.000                    68701.9000
289.500                    68213.6000
290.000                    68586.8000
290.500                    68896.2000
291.000                    68839.3000
291.500                    69447.5000
292.000                    69636.4000
292.500                    69543.7000
293.000                    69578.1000
293.500                    69426.7000
294.000                    69723.1000
294.500                    69581.8000
295.000                    68987.6000
295.500                    68942.5000
296.000                    68289.1000
296.500                    68265.4000
297.000                    67873.3000
297.500                    67472.2000
298.000                    67253.6000
298.500                    67497.1000
299.000                    67541.1000
299.500                    66728.5000
300.000                    66541.1000
300.500                    66257.3000
301.000                    66210.4000
301.500                    65962.5000
302.000                    65914.2000
302.500                    66060.7000
303.000                    65783.3000
303.500                    65512.9000
304.000                    65301.1000
304.500                    65235.3000
305.000                    65084.6000
305.500                    65008.5000
306.000                    64001.4000
306.500                    64164.3000
307.000                    64948.6000
307.500                    64710.8000
308.000                    65041.2000
308.500                    65303.3000
309.000                    65242.4000
309.500                    64986.7000
310.000                    64954.4000
310.500                    65065.5000
311.000                    65635.7000
311.500                    65357.2000
312.000                    65178.1000
312.500                    65837.3000
313.000                    65705.6000
313.500                    65561.3000
314.000                    65896.5000
314.500                    66078.5000
315.000                    66096.7000
315.500                    66101.4000
316.000                    66137.6000
316.500                    66337.4000
317.000                    66266.4000
317.500                    66563.9000
318.000                    66648.3000
318.500                    66868.0000
319.000                    66929.1000
319.500                    67058.0000
320.000                    67294.7000
320.500                    67096.1000
321.000                    67243.2000
321.500                    67121.2000
322.000                    66883.9000
322.500                    67169.8000
323.000                    67260.3000
323.500                    66807.1000
324.000                    67131.9000
324.500                    66672.3000
325.000                    66562.3000
325.500                    66393.0000
326.000                    66434.1000
326.500                    67083.5000
327.000                    67032.8000
327.500                    66981.9000
328.000                    66908.2000
328.500                    66916.5000
329.000                    67290.2000
329.500                    67264.2000
330.000                    67326.3000
330.500                    67434.4000
331.000                    67634.4000
331.500                    67834.1000
332.000                    67955.7000
332.500                    67392.4000
333.000                    67531.0000
333.500                    67347.5000
334.000                    67753.8000
334.500                    67960.9000
335.000                    67657.0000
335.500                    67177.8000
336.000                    67186.3000
336.500                    66357.0000
337.000                    65831.0000
337.500                    66140.9000
338.000                    65478.6000
338.500                    64892.0000
339.000                    64271.0000
339.500                    63327.8000
340.000                    62424.4000
340.500                    61696.3000
341.000                    61425.9000
341.500                    60868.0000
342.000                    60101.6000
342.500                    59699.3000
343.000                    59176.7000
343.500                    57620.6000
344.000                    56638.2000
344.500                    56263.9000
345.000                    55113.8000
345.500                    55034.3000
346.000                    54459.9000
346.500                    53478.1000
347.000                    53012.6000
347.500                    52690.8000
348.000                    51794.6000
348.500                    51301.6000
349.000                    50636.1000
349.500                    49939.4000
350.000                    49478.4000
350.500                    48869.9000
351.000                    48268.6000
351.500                    47620.1000
352.000                    47590.2000
352.500                    47137.2000
353.000                    47004.5000
353.500                    46444.3000
354.000                    45741.5000
354.500                    45306.7000
355.000                    45322.6000
355.500                    45292.0000
356.000                    45391.4000
356.500                    45505.7000
357.000                    45898.5000
357.500                    46042.7000
358.000                    46573.7000
358.500                    46612.6000
359.000                    46124.7000
359.500                    46265.2000
360.000                    45618.3000
360.500                    45419.0000
361.000                    45305.3000
361.500                    44954.7000
362.000                    45039.1000
362.500                    45381.5000
363.000                    45717.0000
363.500                    45552.1000
364.000                    45632.6000
364.500                    45152.8000
365.000                    44899.4000
365.500                    44911.6000
366.000                    44115.6000
366.500                    44132.1000
367.000                    43891.9000
367.500                    43357.3000
368.000                    43074.2000
368.500                    43026.2000
369.000                    42956.8000
369.500                    43346.8000
370.000                    43080.7000
370.500                    43185.4000
371.000                    43490.0000
371.500                    43016.3000
372.000                    43233.9000
372.500                    42976.4000
373.000                    42737.1000
373.500                    42901.7000
374.000                    43118.1000
374.500                    42628.0000
375.000                    42764.5000
375.500                    42977.7000
376.000                    42518.7000
376.500                    42574.1000
377.000                    43001.7000
377.500                    42987.4000
378.000                    42798.1000
378.500                    43049.5000
379.000                    43092.1000
379.500                    43111.1000
380.000                    42705.4000
380.500                    42873.0000
381.000                    43204.4000
381.500                    43012.0000
382.000                    43141.7000
382.500                    43158.1000
383.000                    43178.0000
383.500                    43227.2000
384.000                    43162.3000
384.500                    43608.9000
385.000                    43632.3000
385.500                    43700.4000
386.000                    43644.1000
386.500                    43852.6000
387.000                    43905.7000
387.500                    44107.9000
388.000                    43824.9000
388.500                    44418.6000
389.000                    43755.6000
389.500                    43997.6000
390.000                    44121.0000
390.500                    44325.3000
391.000                    44389.0000
391.500                    44560.1000
392.000                    44967.4000
392.500                    45486.6000
393.000                    45962.4000
393.500                    46632.3000
394.000                    46935.9000
394.500                    47708.9000
395.000                    48892.5000
395.500                    49618.0000
396.000                    50799.4000
396.500                    53002.8000
397.000                    56024.1000
397.500                    60186.2000
398.000                    63412.9000
398.500                    65749.1000
399.000                    67669.5000
399.500                    67622.1000
400.000                    66862.3000
400.500                    65256.7000
401.000                    63842.1000
401.500                    60607.2000
402.000                    57440.5000
402.500                    54545.8000
403.000                    52132.7000
403.500                    49951.2000
404.000                    49761.9000
404.500                    50498.8000
405.000                    51720.6000
405.500                    53933.4000
406.000                    54578.5000
406.500                    53877.0000
407.000                    51927.2000
407.500                    49342.1000
408.000                    46856.0000
408.500                    43671.6000
409.000                    41432.8000
409.500                    39067.0000
410.000                    37186.5000
410.500                    35706.2000
411.000                    34854.3000
411.500                    33924.0000
412.000                    33501.2000
412.500                    33210.8000
413.000                    32907.9000
413.500                    32868.7000
414.000                    33107.2000
414.500                    32962.7000
415.000                    32846.3000
415.500                    32995.8000
416.000                    33154.3000
416.500                    32962.9000
417.000                    33078.7000
417.500                    33149.2000
418.000                    33156.5000
418.500                    33168.4000
419.000                    33401.7000
419.500                    33639.8000
420.000                    33825.9000
420.500                    33766.0000
421.000                    33875.6000
421.500                    34023.4000
422.000                    34085.3000
422.500                    34532.2000
423.000                    34934.2000
423.500                    35675.4000
424.000                    35631.0000
424.500                    35829.7000
425.000                    35970.1000
425.500                    36124.4000
426.000                    35850.1000
426.500                    35800.2000
427.000                    35159.7000
427.500                    34471.4000
428.000                    33721.2000
428.500                    32915.7000
429.000                    32150.8000
429.500                    31705.2000
430.000                    31788.4000
430.500                    31712.4000
431.000                    31944.4000
431.500                    32359.5000
432.000                    32658.3000
432.500                    32882.8000
433.000                    32703.7000
433.500                    32354.3000
434.000                    31966.2000
434.500                    31835.6000
435.000                    31743.3000
435.500                    31428.1000
436.000                    31564.8000
436.500                    31384.2000
437.000                    31597.3000
437.500                    31228.2000
438.000                    31111.2000
438.500                    30672.2000
439.000                    30600.3000
439.500                    30897.7000
440.000                    30201.9000
440.500                    29990.9000
441.000                    29748.2000
441.500                    29902.8000
442.000                    29155.7000
442.500                    29387.9000
443.000                    29229.9000
443.500                    28980.4000
444.000                    28811.7000
444.500                    28257.7000
445.000                    28303.7000
445.500                    28118.3000
446.000                    27955.7000
446.500                    28002.7000
447.000                    27904.5000
447.500                    27986.9000
448.000                    28126.2000
448.500                    28116.5000
449.000                    27652.7000
449.500                    27854.8000
450.000                    27838.4000
450.500                    27543.1000
451.000                    27546.4000
451.500                    27780.6000
452.000                    27777.0000
452.500                    27867.2000
453.000                    27985.2000
453.500                    27792.4000
454.000                    27872.2000
454.500                    27891.4000
455.000                    27882.7000
455.500                    27812.4000
456.000                    27823.0000
456.500                    27529.3000
457.000                    27847.6000
457.500                    27806.8000
458.000                    27912.3000
458.500                    27855.1000
459.000                    27822.4000
459.500                    27915.8000
460.000                    27557.2000
460.500                    27585.3000
461.000                    27768.1000
461.500                    27493.6000
462.000                    27490.3000
462.500                    27769.2000
463.000                    27792.4000
463.500                    27797.3000
464.000                    27319.2000
464.500                    27543.5000
465.000                    27555.8000
465.500                    27553.5000
466.000                    27322.5000
466.500                    27425.3000
467.000                    27540.2000
467.500                    27694.2000
468.000                    27606.5000
468.500                    27588.1000
469.000                    27693.6000
469.500                    27777.7000
470.000                    27912.1000
470.500                    28110.0000
471.000                    28269.1000
471.500                    28388.6000
472.000                    28356.5000
472.500                    28620.9000
473.000                    29062.3000
473.500                    28765.6000
474.000                    29004.8000
474.500                    29354.0000
475.000                    29733.6000
475.500                    29385.0000
476.000                    29447.9000
476.500                    29912.0000
477.000                    29766.2000
477.500                    29456.4000
478.000                    29823.4000
478.500                    29597.3000
479.000                    29496.4000
479.500                    29248.2000
480.000                    29501.7000
480.500                    29363.1000
481.000                    29045.1000
481.500                    29343.5000
482.000                    28941.0000
482.500                    28955.7000
483.000                    28718.5000
483.500                    28622.3000
484.000                    28763.2000
484.500                    29090.5000
485.000                    29100.2000
485.500                    29086.1000
486.000                    29362.7000
486.500                    29476.7000
487.000                    29592.7000
487.500                    29077.4000
488.000                    29538.2000
488.500                    29291.5000
489.000                    29298.3000
489.500                    29429.6000
490.000                    29434.0000
490.500                    29265.2000
491.000                    29332.4000
491.500                    29449.9000
492.000                    29415.0000
492.500                    29240.1000
493.000                    28848.9000
493.500                    28919.2000
494.000                    28841.1000
494.500                    28746.6000
495.000                    28959.1000
495.500                    28940.3000
496.000                    28752.5000
496.500                    28623.0000
497.000                    28316.8000
497.500                    28192.6000
498.000                    27994.1000
498.500                    27854.4000
499.000                    27441.5000
499.500                    27471.3000
500.000                    27555.2000
500.500                    27583.7000
501.000                    27826.4000
501.500                    27862.3000
502.000                    27924.6000
502.500                    28276.2000
503.000                    27936.1000
503.500                    28088.6000
504.000                    28519.7000
504.500                    28376.0000
505.000                    28798.9000
505.500                    29163.4000
506.000                    29474.3000
506.500                    29586.7000
507.000                    29762.0000
507.500                    29964.8000
508.000                    30140.4000
508.500                    30351.3000
509.000                    30995.5000
509.500                    31507.6000
510.000                    32054.6000
510.500                    32547.7000
511.000                    32903.4000
511.500                    33761.3000
512.000                    33670.8000
512.500                    32302.1000
513.000                    31428.7000
513.500                    30307.8000
514.000                    29457.7000
514.500                    28127.3000
515.000                    27566.2000
515.500                    27363.1000
516.000                    26775.0000
516.500                    26334.3000
517.000                    25927.0000
517.500                    26044.9000
518.000                    25561.3000
518.500                    25285.8000
519.000                    24832.3000
519.500                    24721.5000
520.000                    24478.9000
520.500                    24571.3000
521.000                    24401.2000
521.500                    23944.9000
522.000                    23645.3000
522.500                    23905.6000
523.000                    23652.2000
523.500                    23742.0000
524.000                    23601.3000
524.500                    23545.7000
525.000                    23561.3000
525.500                    23616.6000
526.000                    24095.1000
526.500                    24196.1000
527.000                    24218.9000
527.500                    24573.7000
528.000                    24423.1000
528.500                    24652.5000
529.000                    24560.5000
529.500                    24454.8000
530.000                    24263.5000
530.500                    24759.3000
531.000                    25062.8000
531.500                    25007.6000
532.000                    25193.6000
532.500                    25357.2000
533.000                    25443.2000
533.500                    25525.2000
534.000                    25677.5000
534.500                    25916.8000
535.000                    25857.3000
535.500                    26612.2000
536.000                    26906.1000
536.500                    27245.3000
537.000                    27366.0000
537.500                    27632.1000
538.000                    27686.5000
538.500                    27384.4000
539.000                    27222.7000
539.500                    26771.8000
540.000                    26781.6000
540.500                    26563.2000
541.000                    26509.7000
541.500                    26251.2000
542.000                    26087.0000
542.500                    26224.7000
543.000                    26317.4000
543.500                    26349.5000
544.000                    26393.7000
544.500                    26521.8000
545.000                    26704.6000
545.500                    27002.5000
546.000                    27270.6000
546.500                    27853.1000
547.000                    29145.4000
547.500                    30113.4000
548.000                    31046.8000
548.500                    32470.0000
549.000                    33509.0000
549.500                    34027.4000
550.000                    33282.7000
550.500                    32066.9000
551.000                    30620.9000
551.500                    29000.4000
552.000                    28380.2000
552.500                    26993.0000
553.000                    26747.4000
553.500                    26173.7000
554.000                    25763.4000
554.500                    25597.2000
555.000                    25444.4000
555.500                    25392.0000
556.000                    25179.5000
556.500                    25513.5000
557.000                    25368.7000
557.500                    25276.7000
558.000                    25298.6000
558.500                    24987.0000
559.000                    25074.2000
559.500                    24776.4000
560.000                    24744.3000
560.500                    24286.6000
561.000                    23992.4000
561.500                    23990.7000
562.000                    24178.7000
562.500                    23913.0000
563.000                    23923.8000
563.500                    23973.0000
564.000                    24088.6000
564.500                    24028.8000
565.000                    23925.8000
565.500                    24108.8000
566.000                    24000.6000
566.500                    23927.2000
567.000                    24108.2000
567.500                    24129.0000
568.000                    24444.5000
568.500                    24545.8000
569.000                    24591.1000
569.500                    24254.1000
570.000                    24267.2000
570.500                    24378.0000
571.000                    24014.0000
571.500                    23874.8000
572.000                    23775.5000
572.500                    23943.0000
573.000                    23942.9000
573.500                    24261.3000
574.000                    24160.1000
574.500                    24161.6000
575.000                    24277.0000
575.500                    24379.2000
576.000                    24075.7000
576.500                    24146.4000
577.000                    24177.4000
577.500                    24152.6000
578.000                    24159.2000
578.500                    24026.2000
579.000                    24230.5000
579.500                    23988.1000
580.000                    24090.6000
580.500                    24009.9000
581.000                    24052.1000
581.500                    24028.2000
582.000                    24266.3000
582.500                    24651.6000
583.000                    25192.1000
583.500                    25729.1000
584.000                    26758.8000
584.500                    27965.1000
585.000                    29865.8000
585.500                    32567.5000
586.000                    34991.8000
586.500                    37268.6000
587.000                    38270.2000
587.500                    38159.9000
588.000                    36843.1000
588.500                    34551.9000
589.000                    31628.1000
589.500                    29312.4000
590.000                    27244.6000
590.500                    25988.7000
591.000                    24685.4000
591.500                    24018.2000
592.000                    23965.1000
592.500                    23329.7000
593.000                    23102.2000
593.500                    23005.0000
594.000                    23005.0000
594.500                    22956.3000
595.000                    22893.5000
595.500                    23345.4000
596.000                    23435.0000
596.500                    23089.4000
597.000                    22937.1000
597.500                    23018.8000
598.000                    22628.9000
598.500                    22588.0000
599.000                    21965.5000
599.500                    21741.9000
600.000                    21546.4000
600.500                    21594.9000
601.000                    21526.1000
601.500                    21457.4000
602.000                    21406.8000
602.500                    21267.4000
603.000                    21252.1000
603.500                    21090.2000
604.000                    21029.7000
604.500                    21133.9000
605.000                    20985.6000
605.500                    21019.0000
606.000                    20998.4000
606.500                    21011.9000
607.000                    21029.5000
607.500                    20642.6000
608.000                    20842.6000
608.500                    20927.4000
609.000                    20515.9000
609.500                    20409.7000
610.000                    20209.3000
610.500                    20576.8000
611.000                    20451.8000
611.500                    20261.0000
612.000                    20263.8000
612.500                    20103.3000
613.000                    20416.6000
613.500                    19964.1000
614.000                    19777.9000
614.500                    20061.3000
615.000                    20015.1000
615.500                    19887.9000
616.000                    19363.1000
616.500                    19680.8000
617.000                    19597.0000
617.500                    19439.6000
618.000                    19630.3000
618.500                    19488.0000
619.000                    19533.0000
619.500                    19488.3000
620.000                    19793.0000
620.500                    19925.8000
621.000                    19845.1000
621.500                    19932.5000
622.000                    20013.0000
622.500                    20074.4000
623.000                    20083.8000
623.500                    20104.2000
624.000                    20105.1000
624.500                    20267.0000
625.000                    20484.9000
625.500                    20436.4000
626.000                    20581.2000
626.500                    20543.0000
627.000                    20735.3000
627.500                    20976.4000
628.000                    20953.5000
628.500                    21040.3000
629.000                    21163.4000
629.500                    21391.6000
630.000                    21316.9000
630.500                    21303.7000
631.000                    21237.6000
631.500                    21171.0000
632.000                    21216.8000
632.500                    21265.5000
633.000                    21196.5000
633.500                    21284.6000
634.000                    21079.8000
634.500                    21052.8000
635.000                    20868.4000
635.500                    20869.2000
636.000                    21071.5000
636.500                    20835.8000
637.000                    20901.6000
637.500                    20971.2000
638.000                    20510.5000
638.500                    21050.4000
639.000                    20682.6000
639.500                    20685.0000
640.000                    20881.5000
640.500                    20608.4000
641.000                    20549.4000
641.500                    20660.2000
642.000                    20621.2000
642.500                    20408.8000
643.000                    20401.8000
643.500                    20590.4000
644.000                    20543.6000
644.500                    20399.5000
645.000                    20411.0000
645.500                    20408.1000
646.000                    20446.1000
646.500                    20315.2000
647.000                    20592.8000
647.500                    20549.0000
648.000                    20344.6000
648.500                    20376.1000
649.000                    19989.5000
649.500                    20186.5000
650.000                    20161.7000
650.500                    20526.5000
651.000                    20280.0000
651.500                    20411.6000
652.000                    20608.2000
652.500                    20380.6000
653.000                    20139.8000
653.500                    20389.1000
654.000                    20232.9000
654.500                    20058.2000
655.000                    20099.4000
655.500                    20235.3000
656.000                    20280.6000
656.500                    20201.9000
657.000                    19951.9000
657.500                    20188.2000
658.000                    20251.4000
658.500                    20152.0000
659.000                    20144.0000
659.500                    19873.1000
660.000                    20298.6000
660.500                    19969.9000
661.000                    19769.2000
661.500                    19892.0000
662.000                    19639.7000
662.500                    19973.9000
663.000                    19667.9000
663.500                    19949.7000
664.000                    19967.7000
664.500                    19993.9000
665.000                    20150.0000
665.500                    20407.9000
666.000                    20318.8000
666.500                    20342.4000
667.000                    20413.7000
667.500                    20434.4000
668.000                    20429.2000
668.500                    20421.9000
669.000                    20553.8000
669.500                    20710.9000
670.000                    20521.8000
670.500                    20217.3000
671.000                    20751.0000
671.500                    20801.2000
672.000                    20974.6000
672.500                    20825.7000
673.000                    20618.7000
673.500                    20912.0000
674.000                    20796.7000
674.500                    20746.3000
675.000                    20760.5000
675.500                    20812.5000
676.000                    20601.5000
676.500                    20596.2000
677.000                    20700.8000
677.500                    20852.1000
678.000                    20685.6000
678.500                    20904.5000
679.000                    21206.3000
679.500                    21081.3000
680.000                    20803.4000
680.500                    20831.6000
681.000                    21135.2000
681.500                    21081.5000
682.000                    21103.2000
682.500                    21153.3000
683.000                    21139.3000
683.500                    21239.6000
684.000                    21359.1000
684.500                    21332.6000
685.000                    21080.0000
685.500                    21162.9000
686.000                    21197.0000
686.500                    21273.3000
687.000                    21341.3000
687.500                    21142.0000
688.000                    20989.9000
688.500                    20855.0000
689.000                    20776.8000
689.500                    20580.8000
690.000                    20696.2000
690.500                    20770.0000
691.000                    20644.1000
691.500                    20781.0000
692.000                    20579.8000
692.500                    20749.0000
693.000                    20639.1000
693.500                    20746.7000
694.000                    20734.4000
694.500                    20553.2000
695.000                    20609.4000
695.500                    20549.2000
696.000                    20606.9000
696.500                    20607.6000
697.000                    20620.2000
697.500                    20600.8000
698.000                    20653.7000
698.500                    20667.2000
699.000                    20825.6000
699.500                    20778.8000
700.000                    20838.7000
700.500                    20943.5000
701.000                    21148.2000
701.500                    21181.4000
702.000                    21176.0000
702.500                    21238.7000
703.000                    21232.2000
703.500                    21542.9000
704.000                    21215.4000
704.500                    21335.3000
705.000                    21546.9000
705.500                    21687.7000
706.000                    21678.3000
706.500                    21605.7000
707.000                    21352.8000
707.500                    21344.0000
708.000                    21351.2000
708.500                    21078.8000
709.000                    20978.1000
709.500                    20758.7000
710.000                    20570.0000
710.500                    20444.3000
711.000                    20430.9000
711.500                    20270.4000
712.000                    20194.4000
712.500                    20128.3000
713.000                    20114.6000
713.500                    20259.2000
714.000                    20139.6000
714.500                    19791.9000
715.000                    20047.1000
715.500                    19722.3000
716.000                    20151.4000
716.500                    19975.8000
717.000                    19739.7000
717.500                    19690.4000
718.000                    19736.9000
718.500                    19841.2000
719.000                    19959.2000
719.500                    20558.1000
720.000                    21409.0000
720.500                    22758.1000
721.000                    25056.5000
721.500                    28369.5000
722.000                    32433.0000
722.500                    36204.8000
723.000                    38486.8000
723.500                    36763.5000
724.000                    32075.9000
724.500                    26745.3000
725.000                    22507.0000
725.500                    20202.2000
726.000                    19336.6000
726.500                    19325.7000
727.000                    19156.4000
727.500                    19025.3000
728.000                    18918.2000
728.500                    18967.8000
729.000                    18863.9000
729.500                    18843.7000
730.000                    19176.7000
730.500                    19646.6000
731.000                    19996.8000
731.500                    20024.4000
732.000                    20015.6000
732.500                    20288.6000
733.000                    19745.6000
733.500                    19602.1000
734.000                    19502.7000
734.500                    18882.7000
735.000                    18937.7000
735.500                    18753.3000
736.000                    18471.8000
736.500                    18536.7000
737.000                    18651.7000
737.500                    18561.7000
738.000                    18517.6000
738.500                    18588.7000
739.000                    18320.2000
739.500                    18341.3000
740.000                    18575.1000
740.500                    18799.1000
741.000                    18950.4000
741.500                    18617.3000
742.000                    18691.7000
742.500                    18634.9000
743.000                    18841.0000
743.500                    18780.0000
744.000                    18852.6000
744.500                    18665.4000
745.000                    18525.3000
745.500                    18842.1000
746.000                    18571.1000
746.500                    18663.9000
747.000                    18729.6000
747.500                    18804.0000
748.000                    18614.6000
748.500                    18545.7000
749.000                    18488.8000
749.500                    18715.5000
750.000                    18360.7000
750.500                    18534.6000
751.000                    18471.1000
751.500                    18742.7000
752.000                    18737.7000
752.500                    18716.0000
753.000                    18546.1000
753.500                    18451.2000
754.000                    18497.8000
754.500                    18409.0000
755.000                    18335.2000
755.500                    18567.8000
756.000                    19037.4000
756.500                    19642.2000
757.000                    20783.3000
757.500                    22289.1000
758.000                    24121.7000
758.500                    24535.0000
759.000                    24170.1000
759.500                    22362.1000
760.000                    20539.7000
760.500                    19152.4000
761.000                    18644.7000
761.500                    18597.9000
762.000                    18251.1000
762.500                    18049.7000
763.000                    18207.5000
763.500                    18401.2000
764.000                    18501.4000
764.500                    19071.8000
765.000                    20089.8000
765.500                    22111.8000
766.000                    24314.4000
766.500                    26639.0000
767.000                    27333.8000
767.500                    26108.0000
768.000                    23438.3000
768.500                    20791.5000
769.000                    19246.8000
769.500                    18263.8000
770.000                    18018.5000
770.500                    17799.0000
771.000                    17711.6000
771.500                    17729.4000
772.000                    17702.4000
772.500                    17794.6000
773.000                    17738.3000
773.500                    17719.5000
774.000                    18043.4000
774.500                    18265.7000
775.000                    18635.5000
775.500                    18509.8000
776.000                    18699.2000
776.500                    18561.7000
777.000                    18674.1000
777.500                    18548.6000
778.000                    18295.4000
778.500                    18240.9000
779.000                    17996.8000
779.500                    18122.7000
780.000                    18299.5000
780.500                    18387.9000
781.000                    18579.8000
781.500                    18693.8000
782.000                    18737.1000
782.500                    18903.6000
783.000                    18779.5000
783.500                    18957.7000
784.000                    19066.1000
784.500                    18961.4000
785.000                    19133.1000
785.500                    18923.6000
786.000                    18885.6000
786.500                    18716.6000
787.000                    18670.6000
787.500                    18725.7000
788.000                    18875.2000
788.500                    18878.7000
789.000                    19130.2000
789.500                    19071.1000
790.000                    19084.8000
790.500                    19186.8000
791.000                    18951.4000
791.500                    18956.5000
792.000                    18671.1000
792.500                    18590.2000
793.000                    18521.6000
793.500                    18133.7000
794.000                    17965.0000
794.500                    17534.9000
795.000                    17473.9000
795.500                    17256.2000
796.000                    17115.2000
796.500                    17145.7000
797.000                    17248.4000
797.500                    17706.2000
798.000                    18409.5000
798.500                    20578.1000
799.000                    25540.3000
799.500                    34784.0000
800.000                    48405.9000
800.500                    61709.8000
801.000                    68311.0000
801.500                    63224.2000
802.000                    47812.6000
802.500                    31310.0000
803.000                    20469.8000
803.500                    15827.7000
804.000                    13859.8000
804.500                    13406.1000
805.000                    13797.4000
805.500                    14687.5000
806.000                    17974.0000
806.500                    25055.5000
807.000                    38507.1000
807.500                    57609.9000
808.000                    78244.0000
808.500                    90003.7000
809.000                    85165.0000
809.500                    64936.2000
810.000                    41749.1000
810.500                    25448.5000
811.000                    17310.6000
811.500                    13864.2000
812.000                    11614.0000
812.500                    10110.5000
813.000                     8984.2000
813.500                     8358.1000
814.000                     7941.1000
814.500                     7696.0000
815.000                     7864.8000
815.500                     8797.3000
816.000                     9955.7000
816.500                    11782.6000
817.000                    13080.9000
817.500                    13404.5000
818.000                    13023.8000
818.500                    11963.7000
819.000                    11156.8000
819.500                     9906.7000
820.000                     8236.0000
820.500                     6949.5000
821.000                     6191.1000
821.500                     5662.4000
822.000                     5369.3000
822.500                     5356.0000
823.000                     5135.2000
823.500                     5138.5000
824.000                     4985.4000
824.500                     5136.0000
825.000                     5084.2000
825.500                     5248.6000
826.000                     5279.9000
826.500                     5307.8000
827.000                     5232.3000
827.500                     5045.1000
828.000                     4882.4000
828.500                     5013.3000
829.000                     5038.6000
829.500                     4956.4000
830.000                     4830.4000
830.500                     4747.5000
831.000                     4667.0000
831.500                     4571.7000
832.000                     4587.8000
832.500                     4507.8000
833.000                     4467.6000
833.500                     4517.7000
834.000                     4534.3000
834.500                     4445.5000
835.000                     4524.9000
835.500                     4547.2000
836.000                     4538.3000
836.500                     4500.2000
837.000                     4646.1000
837.500                     4609.3000
838.000                     4460.7000
838.500                     4396.8000
839.000                     4360.3000
839.500                     4444.8000
840.000                     4427.8000
840.500                     4357.1000
841.000                     4404.3000
841.500                     4439.2000
842.000                     4313.7000
842.500                     4401.9000
843.000                     4408.2000
843.500                     4341.3000
844.000                     4383.3000
844.500                     4346.1000
845.000                     4263.8000
845.500                     4217.2000
846.000                     4216.0000
846.500                     4192.4000
847.000                     4109.8000
847.500                     4059.0000
848.000                     4089.7000
848.500                     4117.6000
849.000                     4214.2000
849.500                     4028.3000
850.000                     4130.6000
850.500                     4208.0000
851.000                     4148.0000
851.500                     4098.2000
852.000                     3979.0000
852.500                     3987.9000
853.000                     3923.1000
853.500                     4012.3000
854.000                     4060.3000
854.500                     3993.6000
855.000                     3922.2000
855.500                     3898.4000
856.000                     4040.3000
856.500                     3984.5000
857.000                     4042.0000
857.500                     3988.2000
858.000                     3872.2000
858.500                     3848.7000
859.000                     3693.9000
859.500                     3559.5000
860.000                     3666.1000
860.500                     3607.4000
861.000                     3667.1000
861.500                     3690.4000
862.000                     3683.3000
862.500                     3717.0000
863.000                     3692.8000
863.500                     3709.6000
864.000                     3679.7000
864.500                     3664.8000
865.000                     3668.9000
865.500                     3666.0000
866.000                     3638.5000
866.500                     3689.9000
867.000                     3741.1000
867.500                     3680.7000
868.000                     3659.1000
868.500                     3751.1000
869.000                     3618.4000
869.500                     3738.7000
870.000                     3670.3000
870.500                     3752.2000
871.000                     3648.3000
871.500                     3829.0000
872.000                     3695.9000
872.500                     3705.6000
873.000                     3797.0000
873.500                     3626.7000
874.000                     3676.4000
874.500                     3685.5000
875.000                     3790.0000
875.500                     3695.6000
876.000                     3682.4000
876.500                     3729.3000
877.000                     3701.0000
877.500                     3685.8000
878.000                     3705.6000
878.500                     3652.2000
879.000                     3655.9000
879.500                     3654.4000
880.000                     3669.8000
880.500                     3700.8000
881.000                     3665.7000
881.500                     3745.3000
882.000                     3612.3000
882.500                     3630.2000
883.000                     3569.8000
883.500                     3517.4000
884.000                     3637.1000
884.500                     3577.4000
885.000                     3563.8000
885.500                     3572.7000
886.000                     3615.1000
886.500                     3493.5000
887.000                     3558.9000
887.500                     3515.0000
888.000                     3673.2000
888.500                     3560.3000
889.000                     3520.2000
889.500                     3648.2000
890.000                     3582.5000
890.500                     3563.0000
891.000                     3565.8000
891.500                     3646.6000
892.000                     3636.7000
892.500                     3596.4000
893.000                     3609.3000
893.500                     3601.1000
894.000                     3581.4000
894.500                     3485.8000
895.000                     3392.5000
895.500                     3510.0000
896.000                     3459.7000
896.500                     3528.2000
897.000                     3531.1000
897.500                     3582.7000
898.000                     3520.6000
898.500                     3516.4000
899.000                     3530.0000
899.500                     3575.9000
900.000                     3615.9000
900.500                     3631.7000
901.000                     3557.7000
901.500                     3506.4000
902.000                     3540.4000
902.500                     3490.6000
903.000                     3503.0000
903.500                     3515.2000
904.000                     3475.2000
904.500                     3513.2000
905.000                     3546.8000
905.500                     3535.6000
906.000                     3515.2000
906.500                     3563.0000
907.000                     3530.4000
907.500                     3442.0000
908.000                     3592.4000
908.500                     3555.3000
909.000                     3565.9000
909.500                     3620.1000
910.000                     3504.4000
910.500                     3549.2000
911.000                     3495.7000
911.500                     3512.2000
912.000                     3662.2000
912.500                     3621.5000
913.000                     3493.8000
913.500                     3579.3000
914.000                     3587.1000
914.500                     3556.4000
915.000                     3623.7000
915.500                     3529.9000
916.000                     3560.2000
916.500                     3649.3000
917.000                     3538.0000
917.500                     3495.4000
918.000                     3499.9000
918.500                     3516.7000
919.000                     3523.3000
919.500                     3522.3000
920.000                     3549.6000
920.500                     3594.3000
921.000                     3475.3000
921.500                     3572.6000
922.000                     3531.0000
922.500                     3554.0000
923.000                     3572.1000
923.500                     3442.9000
924.000                     3568.7000
924.500                     3592.8000
925.000                     3437.3000
925.500                     3411.6000
926.000                     3563.2000
926.500                     3479.9000
927.000                     3563.5000
927.500                     3503.8000
928.000                     3546.6000
928.500                     3530.4000
929.000                     3557.7000
929.500                     3417.4000
930.000                     3421.0000
930.500                     3486.5000
931.000                     3453.8000
931.500                     3499.1000
932.000                     3515.0000
932.500                     3525.6000
933.000                     3451.2000
933.500                     3476.8000
934.000                     3567.9000
934.500                     3544.6000
935.000                     3450.6000
935.500                     3470.0000
936.000                     3502.3000
936.500                     3428.7000
937.000                     3397.6000
937.500                     3424.2000
938.000                     3458.2000
938.500                     3442.3000
939.000                     3467.1000
939.500                     3482.3000
940.000                     3405.6000
940.500                     3511.7000
941.000                     3534.4000
941.500                     3534.6000
942.000                     3437.5000
942.500                     3477.2000
943.000                     3440.9000
943.500                     3508.1000
944.000                     3383.6000
944.500                     3458.7000
945.000                     3363.4000
945.500                     3392.3000
946.000                     3384.6000
946.500                     3288.1000
947.000                     3375.8000
947.500                     3458.5000
948.000                     3364.8000
948.500                     3379.0000
949.000                     3371.8000
949.500                     3375.6000
950.000                     3323.3000
950.500                     3371.7000
951.000                     3288.2000
951.500                     3351.5000
952.000                     3379.8000
952.500                     3337.4000
953.000                     3411.9000
953.500                     3423.8000
954.000                     3362.6000
954.500                     3417.1000
955.000                     3307.3000
955.500                     3344.5000
956.000                     3369.9000
956.500                     3362.8000
957.000                     3469.1000
957.500                     3420.8000
958.000                     3355.0000
958.500                     3292.1000
959.000                     3314.2000
959.500                     3219.6000
960.000                     3329.7000
960.500                     3263.2000
961.000                     3288.4000
961.500                     3369.8000
962.000                     3269.4000
962.500                     3408.7000
963.000                     3326.5000
963.500                     3426.2000
964.000                     3486.6000
964.500                     3447.6000
965.000                     3512.6000
965.500                     3381.8000
966.000                     3490.0000
966.500                     3716.0000
967.000                     3757.9000
967.500                     3915.0000
968.000                     4077.4000
968.500                     4139.9000
969.000                     4025.4000
969.500                     3816.4000
970.000                     3583.8000
970.500                     3418.7000
971.000                     3278.8000
971.500                     3249.9000
972.000                     3357.5000
972.500                     3253.8000
973.000                     3219.5000
973.500                     3161.1000
974.000                     3320.2000
974.500                     3318.1000
975.000                     3234.0000
975.500                     3167.9000
976.000                     3238.4000
976.500                     3259.7000
977.000                     3259.1000
977.500                     3249.9000
978.000                     3278.0000
978.500                     3293.9000
979.000                     3258.8000
979.500                     3238.3000
980.000                     3272.2000
980.500                     3248.5000
981.000                     3121.0000
981.500                     3159.6000
982.000                     3220.5000
982.500                     3221.0000
983.000                     3281.6000
983.500                     3289.6000
984.000                     3270.1000
984.500                     3179.5000
985.000                     3123.2000
985.500                     3073.9000
986.000                     3092.6000
986.500                     3263.4000
987.000                     3319.8000
987.500                     3298.8000
988.000                     3248.5000
988.500                     3233.8000
989.000                     3250.6000
989.500                     3242.1000
990.000                     3322.4000
990.500                     3263.3000
991.000                     3225.0000
991.500                     3223.7000
992.000                     3244.4000
992.500                     3240.4000
993.000                     3235.3000
993.500                     3184.7000
994.000                     3186.5000
994.500                     3139.1000
995.000                     3146.4000
995.500                     3165.1000
996.000                     3149.3000
996.500                     3288.0000
997.000                     3191.7000
997.500                     3161.2000
998.000                     3188.8000
998.500                     3232.4000
999.000                     3200.4000
999.500                     3190.6000
1000.000                    3309.3000
1000.500                    3268.5000
1001.000                    3249.6000
1001.500                    3300.9000
1002.000                    3239.1000
1002.500                    3210.9000
1003.000                    3187.0000
1003.500                    3106.5000
1004.000                    3122.9000
1004.500                    3195.1000
1005.000                    3167.2000
1005.500                    3194.8000
1006.000                    3204.6000
1006.500                    3113.1000
1007.000                    3144.8000
1007.500                    3137.5000
1008.000                    3192.5000
1008.500                    3231.1000
1009.000                    3271.7000
1009.500                    3346.4000
1010.000                    3329.6000
1010.500                    3395.6000
1011.000                    3420.9000
1011.500                    3440.9000
1012.000                    3272.5000
1012.500                    3298.8000
1013.000                    3200.4000
1013.500                    3168.6000
1014.000                    3180.6000
1014.500                    3180.8000
1015.000                    3176.2000
1015.500                    3232.4000
1016.000                    3189.0000
1016.500                    3156.7000
1017.000                    3169.3000
1017.500                    3207.4000
1018.000                    3233.0000
1018.500                    3266.7000
1019.000                    3244.7000
1019.500                    3221.3000
1020.000                    3185.7000
1020.500                    3160.6000
1021.000                    3213.1000
1021.500                    3197.3000
1022.000                    3204.6000
1022.500                    3085.8000
1023.000                    3179.4000
1023.500                    3183.7000
1024.000                    3108.3000
1024.500                    3117.9000
1025.000                    3141.5000
1025.500                    3141.8000
1026.000                    3192.4000
1026.500                    3086.8000
1027.000                    3144.4000
1027.500                    3118.6000
1028.000                    3202.9000
1028.500                    3105.6000
1029.000                    3089.9000
1029.500                    3125.9000
1030.000                    3159.3000
1030.500                    3125.9000
1031.000                    3095.9000
1031.500                    3110.1000
1032.000                    3110.2000
1032.500                    3256.6000
1033.000                    3302.9000
1033.500                    3327.7000
1034.000                    3411.6000
1034.500                    3499.4000
1035.000                    3387.4000
1035.500                    3271.6000
1036.000                    3131.2000
1036.500                    3082.6000
1037.000                    3137.5000
1037.500                    3100.0000
1038.000                    3191.6000
1038.500                    3151.3000
1039.000                    3156.3000
1039.500                    3146.2000
1040.000                    3290.8000
1040.500                    3305.5000
1041.000                    3373.0000
1041.500                    3516.2000
1042.000                    3471.7000
1042.500                    3409.7000
1043.000                    3302.0000
1043.500                    3205.4000
1044.000                    3130.0000
1044.500                    3102.1000
1045.000                    3168.9000
1045.500                    3189.9000
1046.000                    3089.6000
1046.500                    3117.6000
1047.000                    3229.8000
1047.500                    3084.7000
1048.000                    3058.2000
1048.500                    3052.3000
1049.000                    3053.4000
1049.500                    3019.6000
1050.000                    3155.9000
1050.500                    3140.3000
1051.000                    3190.9000
1051.500                    3118.2000
1052.000                    3181.8000
1052.500                    3196.7000
1053.000                    3163.6000
1053.500                    3197.4000
1054.000                    3227.9000
1054.500                    3143.9000
1055.000                    3207.1000
1055.500                    3218.4000
1056.000                    3144.4000
1056.500                    3148.6000
1057.000                    3169.2000
1057.500                    3068.1000
1058.000                    3062.7000
1058.500                    3044.6000
1059.000                    3105.5000
1059.500                    3098.1000
1060.000                    3060.1000
1060.500                    3115.4000
1061.000                    3095.0000
1061.500                    3120.7000
1062.000                    3145.1000
1062.500                    3116.8000
1063.000                    3151.7000
1063.500                    3137.6000
1064.000                    3100.6000
1064.500                    3143.2000
1065.000                    3172.7000
1065.500                    3119.3000
1066.000                    3026.7000
1066.500                    3122.1000
1067.000                    3091.2000
1067.500                    3152.6000
1068.000                    3150.6000
1068.500                    3176.3000
1069.000                    3172.0000
1069.500                    3066.2000
1070.000                    3125.8000
1070.500                    3246.4000
1071.000                    3166.8000
1071.500                    3171.5000
1072.000                    3179.2000
1072.500                    3082.1000
1073.000                    3174.9000
1073.500                    3133.9000
1074.000                    3127.2000
1074.500                    3119.9000
1075.000                    3009.1000
1075.500                    3131.7000
1076.000                    3122.6000
1076.500                    3007.0000
1077.000                    3081.4000
1077.500                    3161.8000
1078.000                    3140.5000
1078.500                    3082.7000
1079.000                    3113.6000
1079.500                    3104.5000
1080.000                    3149.9000
1080.500                    3153.4000
1081.000                    3167.5000
1081.500                    3086.4000
1082.000                    3095.2000
1082.500                    3198.9000
1083.000                    3164.9000
1083.500                    3179.7000
1084.000                    3100.9000
1084.500                    3147.5000
1085.000                    3185.0000
1085.500                    3086.6000
1086.000                    3144.1000
1086.500                    3130.0000
1087.000                    3075.7000
1087.500                    3116.1000
1088.000                    3118.4000
1088.500                    3153.0000
1089.000                    3175.6000
1089.500                    3161.2000
1090.000                    3145.5000
1090.500                    3209.7000
1091.000                    3159.2000
1091.500                    3165.6000
1092.000                    3180.9000
1092.500                    3182.9000
1093.000                    3252.8000
1093.500                    3212.1000
1094.000                    3198.5000
1094.500                    3143.9000
1095.000                    3231.4000
1095.500                    3166.1000
1096.000                    3152.3000
1096.500                    3345.6000
1097.000                    3211.8000
1097.500                    3171.6000
1098.000                    3158.5000
1098.500                    3345.7000
1099.000                    3338.8000
1099.500                    3314.0000
1100.000                    3384.6000
1100.500                    3323.4000
1101.000                    3291.8000
1101.500                    3243.8000
1102.000                    3202.5000
1102.500                    3241.8000
1103.000                    3251.4000
1103.500                    3251.8000
1104.000                    3262.2000
1104.500                    3119.9000
1105.000                    3253.1000
1105.500                    3271.8000
1106.000                    3269.1000
1106.500                    3260.6000
1107.000                    3293.5000
1107.500                    3241.1000
1108.000                    3200.8000
1108.500                    3268.0000
1109.000                    3250.0000
1109.500                    3172.6000
1110.000                    3258.6000
1110.500                    3360.4000
1111.000                    3265.9000
1111.500                    3289.5000
1112.000                    3259.9000
1112.500                    3304.2000
1113.000                    3297.1000
1113.500                    3403.7000
1114.000                    3372.5000
1114.500                    3374.9000
1115.000                    3293.2000
1115.500                    3277.7000
1116.000                    3232.3000
1116.500                    3250.4000
1117.000                    3270.4000
1117.500                    3318.2000
1118.000                    3219.7000
1118.500                    3227.8000
1119.000                    3233.9000
1119.500                    3220.0000
1120.000                    3225.4000
1120.500                    3254.4000
1121.000                    3173.6000
1121.500                    3179.0000
1122.000                    3271.7000
1122.500                    3196.1000
1123.000                    3234.4000
1123.500                    3272.8000
1124.000                    3291.4000
1124.500                    3334.7000
1125.000                    3358.8000
1125.500                    3359.4000
1126.000                    3308.5000
1126.500                    3492.3000
1127.000                    3585.7000
1127.500                    3636.7000
1128.000                    3739.6000
1128.500                    3884.1000
1129.000                    3793.0000
1129.500                    3888.5000
1130.000                    3890.1000
1130.500                    3907.5000
1131.000                    3798.9000
1131.500                    3758.9000
1132.000                    3642.9000
1132.500                    3566.7000
1133.000                    3435.7000
1133.500                    3279.2000
1134.000                    3309.2000
1134.500                    3258.6000
1135.000                    3366.6000
1135.500                    3259.9000
1136.000                    3182.5000
1136.500                    3255.5000
1137.000                    3237.4000
1137.500                    3260.8000
1138.000                    3127.5000
1138.500                    3234.6000
1139.000                    3217.8000
1139.500                    3239.4000
1140.000                    3317.0000
1140.500                    3287.1000
1141.000                    3290.1000
1141.500                    3224.7000
1142.000                    3238.3000
1142.500                    3231.1000
1143.000                    3228.0000
1143.500                    3189.1000
1144.000                    3123.3000
1144.500                    3246.8000
1145.000                    3270.2000
1145.500                    3193.0000
1146.000                    3203.0000
1146.500                    3181.6000
1147.000                    3076.8000
1147.500                    3252.0000
1148.000                    3252.0000
1148.500                    3343.9000
1149.000                    3300.3000
1149.500                    3317.7000
1150.000                    3350.6000
1150.500                    3357.0000
1151.000                    3429.0000
1151.500                    3360.1000
1152.000                    3418.0000
1152.500                    3297.1000
1153.000                    3368.7000
1153.500                    3327.2000
1154.000                    3358.7000
1154.500                    3290.9000
1155.000                    3354.4000
1155.500                    3233.7000
1156.000                    3384.9000
1156.500                    3378.2000
1157.000                    3329.3000
1157.500                    3404.7000
1158.000                    3337.7000
1158.500                    3418.8000
1159.000                    3498.1000
1159.500                    3486.7000
1160.000                    3514.3000
1160.500                    3522.5000
1161.000                    3601.8000
1161.500                    3573.3000
1162.000                    3563.0000
1162.500                    3573.6000
1163.000                    3631.9000
1163.500                    3673.1000
1164.000                    3675.9000
1164.500                    3768.2000
1165.000                    3682.6000
1165.500                    3661.0000
1166.000                    3736.6000
1166.500                    3787.8000
1167.000                    3829.3000
1167.500                    3760.9000
1168.000                    3840.1000
1168.500                    3841.5000
1169.000                    3880.6000
1169.500                    3860.5000
1170.000                    3922.3000
1170.500                    3854.6000
1171.000                    3889.7000
1171.500                    4064.7000
1172.000                    4066.0000
1172.500                    3997.2000
1173.000                    4007.1000
1173.500                    4013.8000
1174.000                    4065.5000
1174.500                    4010.2000
1175.000                    4026.3000
1175.500                    3878.7000
1176.000                    3855.0000
1176.500                    3827.0000
1177.000                    3630.8000
1177.500                    3599.5000
1178.000                    3416.0000
1178.500                    3239.1000
1179.000                    3259.7000
1179.500                    3209.6000
1180.000                    3209.1000
1180.500                    3107.3000
1181.000                    3132.6000
1181.500                    3055.5000
1182.000                    2963.3000
1182.500                    2973.0000
1183.000                    2879.8000
1183.500                    2708.7000
1184.000                    2693.4000
1184.500                    2738.9000
1185.000                    2699.5000
1185.500                    2618.9000
1186.000                    2493.0000
1186.500                    2590.6000
1187.000                    2483.8000
1187.500                    2466.4000
1188.000                    2377.4000
1188.500                    2328.4000
1189.000                    2356.5000
1189.500                    2370.1000
1190.000                    2319.0000
1190.500                    2308.8000
1191.000                    2301.6000
1191.500                    2246.4000
1192.000                    2251.2000
1192.500                    2267.3000
1193.000                    2263.1000
1193.500                    2283.8000
1194.000                    2280.9000
1194.500                    2148.1000
1195.000                    2234.8000
1195.500                    2272.7000
1196.000                    2280.2000
1196.500                    2213.0000
1197.000                    2236.8000
1197.500                    2224.9000
1198.000                    2248.6000
1198.500                    2273.2000
1199.000                    2225.1000
1199.500                    2228.4000
1200.000                    2282.7000
1200.500                    2223.9000
1201.000                    2230.0000
1201.500                    2264.7000
1202.000                    2219.5000
1202.500                    2261.8000
1203.000                    2242.9000
1203.500                    2185.7000
1204.000                    2181.5000
1204.500                    2247.6000
1205.000                    2218.8000
1205.500                    2193.4000
1206.000                    2290.2000
1206.500                    2340.0000
1207.000                    2319.6000
1207.500                    2249.7000
1208.000                    2329.3000
1208.500                    2284.5000
1209.000                    2324.5000
1209.500                    2370.2000
1210.000                    2342.8000
1210.500                    2279.1000
1211.000                    2301.1000
1211.500                    2308.4000
1212.000                    2390.4000
1212.500                    2418.9000
1213.000                    2458.6000
1213.500                    2410.2000
1214.000                    2396.3000
1214.500                    2427.7000
1215.000                    2444.4000
1215.500                    2363.0000
1216.000                    2406.3000
1216.500                    2402.4000
1217.000                    2371.5000
1217.500                    2430.6000
1218.000                    2374.8000
1218.500                    2435.1000
1219.000                    2398.7000
1219.500                    2408.5000
1220.000                    2374.6000
1220.500                    2443.7000
1221.000                    2328.6000
1221.500                    2331.9000
1222.000                    2394.9000
1222.500                    2354.7000
1223.000                    2280.5000
1223.500                    2237.3000
1224.000                    2354.4000
1224.500                    2356.7000
1225.000                    2421.3000
1225.500                    2626.8000
1226.000                    2858.1000
1226.500                    3111.7000
1227.000                    3186.9000
1227.500                    3289.5000
1228.000                    3096.6000
1228.500                    2962.8000
1229.000                    2650.0000
1229.500                    2496.2000
1230.000                    2491.8000
1230.500                    2508.6000
1231.000                    2530.1000
1231.500                    2521.5000
1232.000                    2688.1000
1232.500                    3027.8000
1233.000                    3792.2000
1233.500                    5287.2000
1234.000                    7440.5000
1234.500                    9734.3000
1235.000                   11137.5000
1235.500                   10976.0000
1236.000                    8868.0000
1236.500                    6581.2000
1237.000                    4329.8000
1237.500                    2768.9000
1238.000                    2073.8000
1238.500                    1743.9000
1239.000                    1572.2000
1239.500                    1475.0000
1240.000                    1480.2000
1240.500                    1456.9000
1241.000                    1459.4000
1241.500                    1501.2000
1242.000                    1638.1000
1242.500                    1786.9000
1243.000                    1929.9000
1243.500                    2180.8000
1244.000                    2283.2000
1244.500                    2319.5000
1245.000                    2195.7000
1245.500                    2155.8000
1246.000                    2005.6000
1246.500                    1782.7000
1247.000                    1647.0000
1247.500                    1573.6000
1248.000                    1493.3000
1248.500                    1467.0000
1249.000                    1430.1000
1249.500                    1328.0000
1250.000                    1287.7000
1250.500                    1175.5000
1251.000                    1127.2000
1251.500                    1050.2000
1252.000                    1083.3000
1252.500                    1020.7000
1253.000                     991.8000
1253.500                    1043.1000
1254.000                     972.5000
1254.500                     998.5000
1255.000                    1052.6000
1255.500                    1013.3000
1256.000                    1004.4000
1256.500                    1018.5000
1257.000                    1006.2000
1257.500                     967.2000
1258.000                     964.6000
1258.500                     910.9000
1259.000                     894.9000
1259.500                     901.6000
1260.000                     899.8000
