# Transition                      wide 
# Notes                           
# Creation Comment                
# Energy Mode                     KE
# Start Energy in eV              150
# End Energy in eV                1260
# Energy Step in eV               0.5
# Number Of Sweeps                1
# Dwell Time per Sweep in s       0.3
# Analyser Mode                   CAE
# Pass Energy in eV/Retard Ratio  50
# Magnification                   high
# Divide Voltages By 10           off
# Excitation Source               Mg Ka 1253.6 eV normal
# Excitation Energy in eV         1253.6
# Analyser Workfunction in eV     4.5
# Entrance Slit                   6 x 12 mm
# Exit Slit                       5 x 11 mm
# 
# 
# Kinetic Energy in eV         Counts
# --------------------         ------
150.000                    18404.7000
150.500                    18248.8000
151.000                    18332.0000
151.500                    18112.5000
152.000                    18009.1000
152.500                    18047.9000
153.000                    18450.2000
153.500                    18328.4000
154.000                    18115.5000
154.500                    18140.6000
155.000                    18276.4000
155.500                    18356.0000
156.000                    18370.3000
156.500                    18180.3000
157.000                    18134.9000
157.500                    18362.5000
158.000                    18275.1000
158.500                    18183.6000
159.000                    18129.7000
159.500                    18009.9000
160.000                    18092.9000
160.500                    18023.0000
161.000                    17914.6000
161.500                    18082.5000
162.000                    18044.5000
162.500                    17952.3000
163.000                    17748.7000
163.500                    17971.1000
164.000                    18160.1000
164.500                    18127.8000
165.000                    17935.6000
165.500                    17913.8000
166.000                    17916.8000
166.500                    17992.0000
167.000                    17874.5000
167.500                    17856.0000
168.000                    18026.1000
168.500                    17844.1000
169.000                    17904.9000
169.500                    17930.7000
170.000                    17932.9000
170.500                    17707.1000
171.000                    17812.8000
171.500                    17894.1000
172.000                    17793.3000
172.500                    17656.8000
173.000                    17939.3000
173.500                    17898.6000
174.000                    17590.2000
174.500                    17757.7000
175.000                    17613.2000
175.500                    17640.9000
176.000                    17582.5000
176.500                    17726.7000
177.000                    17687.6000
177.500                    17662.7000
178.000                    17429.3000
178.500                    17370.5000
179.000                    17606.3000
179.500                    17643.4000
180.000                    17586.0000
180.500                    17459.4000
181.000                    17449.1000
181.500                    17618.9000
182.000                    17434.9000
182.500                    17518.5000
183.000                    17552.8000
183.500                    17436.0000
184.000                    17535.3000
184.500                    17372.4000
185.000                    17510.6000
185.500                    17422.6000
186.000                    17367.5000
186.500                    17352.8000
187.000                    17420.3000
187.500                    17383.6000
188.000                    17310.7000
188.500                    17328.7000
189.000                    17452.6000
189.500                    17321.3000
190.000                    17083.0000
190.500                    17186.4000
191.000                    17369.3000
191.500                    17133.8000
192.000                    17458.7000
192.500                    17474.3000
193.000                    17146.5000
193.500                    17012.4000
194.000                    17248.8000
194.500                    17162.6000
195.000                    17038.4000
195.500                    17259.1000
196.000                    17199.4000
196.500                    17081.8000
197.000                    17116.2000
197.500                    17061.5000
198.000                    17160.1000
198.500                    17288.6000
199.000                    17028.0000
199.500                    16951.4000
200.000                    17069.1000
200.500                    17114.3000
201.000                    17046.2000
201.500                    17076.5000
202.000                    16871.1000
202.500                    17070.0000
203.000                    17226.3000
203.500                    17120.4000
204.000                    17031.2000
204.500                    16974.6000
205.000                    16940.1000
205.500                    17050.1000
206.000                    17000.7000
206.500                    16858.7000
207.000                    16904.6000
207.500                    17031.8000
208.000                    17027.7000
208.500                    17088.9000
209.000                    17019.5000
209.500                    17009.6000
210.000                    16975.0000
210.500                    16912.2000
211.000                    16743.5000
211.500                    16832.1000
212.000                    16989.0000
212.500                    16915.8000
213.000                    16831.9000
213.500                    16987.3000
214.000                    17001.6000
214.500                    16867.0000
215.000                    16746.2000
215.500                    16936.1000
216.000                    16781.7000
216.500                    16912.2000
217.000                    16886.5000
217.500                    16795.4000
218.000                    16781.0000
218.500                    16769.2000
219.000                    16840.2000
219.500                    16660.4000
220.000                    16881.3000
220.500                    16942.8000
221.000                    16924.5000
221.500                    16970.2000
222.000                    16824.8000
222.500                    16885.5000
223.000                    16684.7000
223.500                    16842.6000
224.000                    16735.6000
224.500                    16564.4000
225.000                    16600.5000
225.500                    16418.6000
226.000                    16621.9000
226.500                    16619.6000
227.000                    16706.5000
227.500                    16485.6000
228.000                    16416.5000
228.500                    16393.2000
229.000                    16425.9000
229.500                    16674.5000
230.000                    16663.8000
230.500                    16594.1000
231.000                    16387.7000
231.500                    16568.1000
232.000                    16476.5000
232.500                    16403.6000
233.000                    16697.9000
233.500                    16715.9000
234.000                    16838.0000
234.500                    16654.4000
235.000                    16753.7000
235.500                    17164.3000
236.000                    17373.3000
236.500                    17599.7000
237.000                    17724.0000
237.500                    18096.0000
238.000                    18374.7000
238.500                    18785.3000
239.000                    19032.9000
239.500                    19357.4000
240.000                    19412.4000
240.500                    19003.0000
241.000                    18695.1000
241.500                    18171.7000
242.000                    17665.8000
242.500                    17403.6000
243.000                    16894.8000
243.500                    16841.6000
244.000                    16667.2000
244.500                    16563.3000
245.000                    16552.5000
245.500                    16609.3000
246.000                    16582.5000
246.500                    16549.6000
247.000                    16043.1000
247.500                    16059.8000
248.000                    16041.5000
248.500                    16053.1000
249.000                    15994.6000
249.500                    15989.7000
250.000                    16091.5000
250.500                    16221.3000
251.000                    16108.0000
251.500                    16293.3000
252.000                    16506.0000
252.500                    16408.7000
253.000                    16607.4000
253.500                    16730.6000
254.000                    16819.1000
254.500                    17008.0000
255.000                    16947.7000
255.500                    17153.3000
256.000                    17243.8000
256.500                    17103.5000
257.000                    17316.1000
257.500                    17210.2000
258.000                    17527.4000
258.500                    17578.4000
259.000                    17428.2000
259.500                    17408.5000
260.000                    17348.3000
260.500                    17220.2000
261.000                    17284.2000
261.500                    17035.5000
262.000                    16956.4000
262.500                    17106.8000
263.000                    16735.7000
263.500                    16646.6000
264.000                    16554.3000
264.500                    16501.9000
265.000                    16114.6000
265.500                    16155.5000
266.000                    16082.8000
266.500                    15778.9000
267.000                    15511.3000
267.500                    15551.1000
268.000                    15365.5000
268.500                    15326.6000
269.000                    15176.8000
269.500                    14907.9000
270.000                    14440.2000
270.500                    14246.2000
271.000                    13955.5000
271.500                    13843.1000
272.000                    13519.5000
272.500                    13127.1000
273.000                    12919.3000
273.500                    12683.6000
274.000                    12368.8000
274.500                    12212.5000
275.000                    11980.1000
275.500                    11656.1000
276.000                    11484.5000
276.500                    11189.0000
277.000                    10899.2000
277.500                    10815.6000
278.000                    10607.7000
278.500                    10349.9000
279.000                    10238.3000
279.500                    10249.2000
280.000                    10068.5000
280.500                    10025.2000
281.000                     9860.2000
281.500                     9487.4000
282.000                     9367.6000
282.500                     9226.4000
283.000                     9235.4000
283.500                     9163.1000
284.000                     9086.0000
284.500                     9141.2000
285.000                     8987.9000
285.500                     9167.1000
286.000                     8979.6000
286.500                     9009.7000
287.000                     8986.7000
287.500                     8833.2000
288.000                     8993.3000
288.500                     9149.8000
289.000                     9016.2000
289.500                     8817.5000
290.000                     8822.1000
290.500                     8827.0000
291.000                     8977.0000
291.500                     8910.2000
292.000                     8886.9000
292.500                     8836.4000
293.000                     8997.1000
293.500                     9067.4000
294.000                     9082.3000
294.500                     8960.4000
295.000                     8808.6000
295.500                     8924.1000
296.000                     8992.1000
296.500                     8910.8000
297.000                     8938.1000
297.500                     8897.0000
298.000                     8949.9000
298.500                     8945.2000
299.000                     8914.0000
299.500                     9023.4000
300.000                     8908.6000
300.500                     8840.9000
301.000                     9028.6000
301.500                     8953.6000
302.000                     8973.4000
302.500                     8967.0000
303.000                     8995.6000
303.500                     8889.1000
304.000                     8877.4000
304.500                     8985.1000
305.000                     8807.2000
305.500                     8804.0000
306.000                     8843.7000
306.500                     8842.5000
307.000                     8934.3000
307.500                     8941.6000
308.000                     8938.7000
308.500                     8864.0000
309.000                     8832.4000
309.500                     8934.9000
310.000                     8877.2000
310.500                     8982.1000
311.000                     8880.5000
311.500                     8738.4000
312.000                     8756.5000
312.500                     8844.6000
313.000                     8878.5000
313.500                     8905.7000
314.000                     8833.7000
314.500                     8942.3000
315.000                     9013.8000
315.500                     8903.1000
316.000                     8728.9000
316.500                     8950.6000
317.000                     8831.6000
317.500                     8906.2000
318.000                     8765.8000
318.500                     8925.5000
319.000                     8711.6000
319.500                     8990.7000
320.000                     8988.4000
320.500                     8915.6000
321.000                     8714.3000
321.500                     8929.8000
322.000                     9021.7000
322.500                     8843.2000
323.000                     8817.9000
323.500                     8934.0000
324.000                     8910.4000
324.500                     8785.9000
325.000                     8788.6000
325.500                     8892.9000
326.000                     8803.1000
326.500                     8847.2000
327.000                     8765.7000
327.500                     8762.1000
328.000                     8776.9000
328.500                     8809.2000
329.000                     8783.2000
329.500                     8793.4000
330.000                     8829.1000
330.500                     8760.6000
331.000                     8830.2000
331.500                     8776.3000
332.000                     8778.9000
332.500                     8783.2000
333.000                     8678.1000
333.500                     8731.2000
334.000                     8679.7000
334.500                     8608.5000
335.000                     8708.1000
335.500                     8758.5000
336.000                     8757.2000
336.500                     8804.6000
337.000                     8754.5000
337.500                     8781.0000
338.000                     8648.9000
338.500                     8700.9000
339.000                     8735.1000
339.500                     8657.3000
340.000                     8832.4000
340.500                     8569.1000
341.000                     8628.9000
341.500                     8682.5000
342.000                     8626.1000
342.500                     8621.9000
343.000                     8739.3000
343.500                     8746.7000
344.000                     8645.9000
344.500                     8783.9000
345.000                     8636.4000
345.500                     8689.6000
346.000                     8705.0000
346.500                     8661.8000
347.000                     8654.1000
347.500                     8535.4000
348.000                     8554.0000
348.500                     8394.2000
349.000                     8488.2000
349.500                     8386.2000
350.000                     8411.0000
350.500                     8296.0000
351.000                     8070.2000
351.500                     8203.3000
352.000                     8083.6000
352.500                     8117.1000
353.000                     8148.2000
353.500                     8077.4000
354.000                     8083.6000
354.500                     8137.4000
355.000                     8050.8000
355.500                     8166.0000
356.000                     8185.3000
356.500                     8167.2000
357.000                     8116.5000
357.500                     8041.0000
358.000                     8100.0000
358.500                     8091.7000
359.000                     8013.0000
359.500                     7983.6000
360.000                     7983.6000
360.500                     7909.4000
361.000                     7831.6000
361.500                     8011.0000
362.000                     7957.1000
362.500                     7864.0000
363.000                     7876.1000
363.500                     7865.7000
364.000                     7848.6000
364.500                     7907.6000
365.000                     7791.4000
365.500                     7759.1000
366.000                     7656.0000
366.500                     7715.0000
367.000                     7658.6000
367.500                     7775.4000
368.000                     7603.5000
368.500                     7711.4000
369.000                     7557.7000
369.500                     7723.6000
370.000                     7767.8000
370.500                     7704.7000
371.000                     7606.6000
371.500                     7807.9000
372.000                     7664.5000
372.500                     7701.6000
373.000                     7740.8000
373.500                     7682.0000
374.000                     7640.0000
374.500                     7604.9000
375.000                     7605.6000
375.500                     7683.6000
376.000                     7733.3000
376.500                     7733.5000
377.000                     7735.3000
377.500                     7775.8000
378.000                     7792.7000
378.500                     7712.9000
379.000                     7659.1000
379.500                     7614.0000
380.000                     7694.6000
380.500                     7713.6000
381.000                     7566.5000
381.500                     7552.1000
382.000                     7562.9000
382.500                     7679.4000
383.000                     7715.4000
383.500                     7693.5000
384.000                     7612.0000
384.500                     7580.5000
385.000                     7528.5000
385.500                     7655.0000
386.000                     7564.3000
386.500                     7658.3000
387.000                     7733.5000
387.500                     7655.7000
388.000                     7515.0000
388.500                     7684.3000
389.000                     7686.4000
389.500                     7776.2000
390.000                     7718.3000
390.500                     7656.6000
391.000                     7659.5000
391.500                     7576.7000
392.000                     7679.7000
392.500                     7740.7000
393.000                     7608.0000
393.500                     7635.8000
394.000                     7480.8000
394.500                     7640.8000
395.000                     7615.0000
395.500                     7557.2000
396.000                     7608.4000
396.500                     7624.3000
397.000                     7649.5000
397.500                     7525.7000
398.000                     7551.2000
398.500                     7506.5000
399.000                     7550.2000
399.500                     7600.3000
400.000                     7621.9000
400.500                     7552.1000
401.000                     7464.5000
401.500                     7542.0000
402.000                     7514.4000
402.500                     7651.4000
403.000                     7540.5000
403.500                     7501.3000
404.000                     7580.6000
404.500                     7554.0000
405.000                     7620.2000
405.500                     7684.2000
406.000                     7769.6000
406.500                     7600.8000
407.000                     7597.1000
407.500                     7615.6000
408.000                     7550.3000
408.500                     7574.8000
409.000                     7544.8000
409.500                     7634.2000
410.000                     7650.7000
410.500                     7549.5000
411.000                     7581.6000
411.500                     7550.3000
412.000                     7711.0000
412.500                     7757.4000
413.000                     7592.7000
413.500                     7621.0000
414.000                     7641.2000
414.500                     7668.8000
415.000                     7650.5000
415.500                     7700.1000
416.000                     7636.8000
416.500                     7606.7000
417.000                     7460.3000
417.500                     7662.0000
418.000                     7696.9000
418.500                     7829.3000
419.000                     7648.1000
419.500                     7598.5000
420.000                     7530.4000
420.500                     7672.7000
421.000                     7595.7000
421.500                     7595.0000
422.000                     7646.9000
422.500                     7547.6000
423.000                     7692.1000
423.500                     7621.9000
424.000                     7612.5000
424.500                     7555.0000
425.000                     7594.8000
425.500                     7562.5000
426.000                     7636.6000
426.500                     7759.5000
427.000                     7717.5000
427.500                     7682.7000
428.000                     7592.7000
428.500                     7619.5000
429.000                     7673.3000
429.500                     7481.9000
430.000                     7461.0000
430.500                     7565.5000
431.000                     7525.5000
431.500                     7580.8000
432.000                     7482.7000
432.500                     7507.7000
433.000                     7645.2000
433.500                     7641.3000
434.000                     7591.9000
434.500                     7617.9000
435.000                     7512.7000
435.500                     7530.9000
436.000                     7639.0000
436.500                     7592.0000
437.000                     7687.8000
437.500                     7692.4000
438.000                     7540.6000
438.500                     7698.6000
439.000                     7620.1000
439.500                     7636.1000
440.000                     7625.5000
440.500                     7619.8000
441.000                     7664.2000
441.500                     7676.0000
442.000                     7794.1000
442.500                     7746.9000
443.000                     7802.8000
443.500                     7621.0000
444.000                     7513.6000
444.500                     7755.1000
445.000                     7764.6000
445.500                     7534.8000
446.000                     7700.3000
446.500                     7712.6000
447.000                     7771.9000
447.500                     7633.8000
448.000                     7726.0000
448.500                     7672.2000
449.000                     7696.6000
449.500                     7744.3000
450.000                     7843.4000
450.500                     7843.7000
451.000                     7700.8000
451.500                     7602.8000
452.000                     7594.2000
452.500                     7665.1000
453.000                     7723.3000
453.500                     7819.9000
454.000                     7761.5000
454.500                     7712.0000
455.000                     7861.1000
455.500                     7782.3000
456.000                     7882.7000
456.500                     7704.9000
457.000                     7762.4000
457.500                     7816.5000
458.000                     7751.7000
458.500                     7851.0000
459.000                     7700.3000
459.500                     7762.8000
460.000                     7740.2000
460.500                     7872.9000
461.000                     7682.6000
461.500                     7755.9000
462.000                     7705.5000
462.500                     7798.0000
463.000                     7779.1000
463.500                     7901.9000
464.000                     7922.2000
464.500                     7884.2000
465.000                     7845.7000
465.500                     7881.1000
466.000                     7864.4000
466.500                     7858.7000
467.000                     7836.6000
467.500                     7896.0000
468.000                     7924.7000
468.500                     7804.1000
469.000                     7885.3000
469.500                     7784.8000
470.000                     8013.9000
470.500                     7811.7000
471.000                     7832.7000
471.500                     7788.7000
472.000                     7867.6000
472.500                     7875.3000
473.000                     7848.4000
473.500                     7895.2000
474.000                     7808.6000
474.500                     7847.4000
475.000                     7758.5000
475.500                     7897.4000
476.000                     8093.9000
476.500                     7876.2000
477.000                     7826.6000
477.500                     7752.4000
478.000                     7871.8000
478.500                     7910.4000
479.000                     7955.9000
479.500                     7959.7000
480.000                     7866.9000
480.500                     7973.1000
481.000                     7888.4000
481.500                     8047.0000
482.000                     8118.3000
482.500                     8239.6000
483.000                     8082.2000
483.500                     8150.3000
484.000                     8276.2000
484.500                     8262.0000
485.000                     8248.5000
485.500                     8304.7000
486.000                     8324.8000
486.500                     8375.6000
487.000                     8367.5000
487.500                     8377.9000
488.000                     8196.0000
488.500                     8294.7000
489.000                     8249.3000
489.500                     8199.6000
490.000                     8179.6000
490.500                     7953.5000
491.000                     8109.6000
491.500                     8184.1000
492.000                     8095.3000
492.500                     8100.0000
493.000                     8029.7000
493.500                     7923.2000
494.000                     7987.3000
494.500                     7703.1000
495.000                     7862.2000
495.500                     7896.5000
496.000                     7790.1000
496.500                     7659.6000
497.000                     7719.7000
497.500                     7771.0000
498.000                     7728.1000
498.500                     7643.1000
499.000                     7726.8000
499.500                     7766.0000
500.000                     7634.3000
500.500                     7659.7000
501.000                     7741.7000
501.500                     7690.7000
502.000                     7725.8000
502.500                     7873.3000
503.000                     8087.6000
503.500                     8120.6000
504.000                     8161.7000
504.500                     8164.9000
505.000                     8336.5000
505.500                     8510.1000
506.000                     8551.6000
506.500                     8545.9000
507.000                     8671.7000
507.500                     8908.3000
508.000                     8928.1000
508.500                     9001.8000
509.000                     9089.3000
509.500                     9145.4000
510.000                     8910.2000
510.500                     8986.5000
511.000                     8889.1000
511.500                     8750.5000
512.000                     8677.8000
512.500                     8672.5000
513.000                     8683.0000
513.500                     8405.8000
514.000                     8330.5000
514.500                     8173.6000
515.000                     8007.8000
515.500                     7990.4000
516.000                     7927.4000
516.500                     7668.9000
517.000                     7449.9000
517.500                     7178.2000
518.000                     7062.6000
518.500                     6887.0000
519.000                     6724.6000
519.500                     6687.1000
520.000                     6722.7000
520.500                     6533.4000
521.000                     6533.8000
521.500                     6463.6000
522.000                     6294.0000
522.500                     6299.3000
523.000                     6228.1000
523.500                     6158.6000
524.000                     6124.1000
524.500                     6150.2000
525.000                     6239.5000
525.500                     6364.9000
526.000                     6187.0000
526.500                     6211.8000
527.000                     6206.7000
527.500                     6224.8000
528.000                     6077.0000
528.500                     6124.0000
529.000                     6209.0000
529.500                     6041.0000
530.000                     6087.3000
530.500                     6111.6000
531.000                     6087.7000
531.500                     6142.2000
532.000                     6096.3000
532.500                     5975.8000
533.000                     6035.4000
533.500                     6070.1000
534.000                     6076.7000
534.500                     6169.8000
535.000                     6100.0000
535.500                     6049.4000
536.000                     6007.0000
536.500                     6057.1000
537.000                     6065.0000
537.500                     6041.5000
538.000                     6022.6000
538.500                     6034.0000
539.000                     6059.4000
539.500                     6009.2000
540.000                     6032.0000
540.500                     6080.5000
541.000                     6011.6000
541.500                     6087.2000
542.000                     6059.1000
542.500                     6077.4000
543.000                     6010.6000
543.500                     6124.1000
544.000                     6101.4000
544.500                     6100.9000
545.000                     5960.6000
545.500                     5995.6000
546.000                     6054.3000
546.500                     6131.3000
547.000                     6059.8000
547.500                     6092.3000
548.000                     5971.4000
548.500                     5922.1000
549.000                     6061.4000
549.500                     5923.7000
550.000                     6049.3000
550.500                     5975.3000
551.000                     5945.1000
551.500                     5976.4000
552.000                     5959.2000
552.500                     5945.0000
553.000                     6000.2000
553.500                     5949.7000
554.000                     5894.7000
554.500                     5933.1000
555.000                     5939.8000
555.500                     5962.5000
556.000                     6014.9000
556.500                     5827.0000
557.000                     5904.5000
557.500                     5981.8000
558.000                     5975.9000
558.500                     5937.6000
559.000                     6010.8000
559.500                     5930.7000
560.000                     5910.0000
560.500                     6057.2000
561.000                     5835.9000
561.500                     5937.2000
562.000                     5880.1000
562.500                     5833.8000
563.000                     5966.4000
563.500                     6017.7000
564.000                     5971.7000
564.500                     5915.6000
565.000                     5967.7000
565.500                     6033.0000
566.000                     5941.0000
566.500                     5944.8000
567.000                     6048.0000
567.500                     5918.0000
568.000                     5879.8000
568.500                     5889.4000
569.000                     5959.3000
569.500                     5950.4000
570.000                     5811.9000
570.500                     5794.6000
571.000                     5873.6000
571.500                     5763.0000
572.000                     5895.1000
572.500                     5776.9000
573.000                     5824.9000
573.500                     5829.6000
574.000                     5762.3000
574.500                     5815.4000
575.000                     5832.3000
575.500                     5959.6000
576.000                     5723.4000
576.500                     5808.0000
577.000                     5812.8000
577.500                     5794.9000
578.000                     5813.3000
578.500                     5685.5000
579.000                     5811.5000
579.500                     5857.1000
580.000                     5874.2000
580.500                     5899.3000
581.000                     5842.6000
581.500                     5784.7000
582.000                     5757.9000
582.500                     5813.0000
583.000                     5867.8000
583.500                     5885.3000
584.000                     5730.9000
584.500                     5724.4000
585.000                     5743.6000
585.500                     5809.6000
586.000                     5809.1000
586.500                     5797.5000
587.000                     5828.2000
587.500                     5834.9000
588.000                     5646.9000
588.500                     5784.2000
589.000                     5682.5000
589.500                     5783.5000
590.000                     5764.5000
590.500                     5772.8000
591.000                     5718.8000
591.500                     5711.2000
592.000                     5870.8000
592.500                     5869.3000
593.000                     5799.3000
593.500                     5880.6000
594.000                     5808.5000
594.500                     5775.4000
595.000                     5683.3000
595.500                     5845.2000
596.000                     5856.4000
596.500                     5672.9000
597.000                     5644.8000
597.500                     5759.1000
598.000                     5839.0000
598.500                     5691.2000
599.000                     5727.5000
599.500                     5680.4000
600.000                     5764.9000
600.500                     5762.4000
601.000                     5713.1000
601.500                     5795.9000
602.000                     5697.8000
602.500                     5662.8000
603.000                     5823.4000
603.500                     5742.0000
604.000                     5862.9000
604.500                     5784.9000
605.000                     5782.4000
605.500                     5669.4000
606.000                     5716.8000
606.500                     5643.1000
607.000                     5797.9000
607.500                     5759.2000
608.000                     5693.1000
608.500                     5653.5000
609.000                     5704.2000
609.500                     5736.0000
610.000                     5785.7000
610.500                     5749.0000
611.000                     5750.6000
611.500                     5754.6000
612.000                     5753.2000
612.500                     5762.5000
613.000                     5655.6000
613.500                     5724.3000
614.000                     5767.2000
614.500                     5779.4000
615.000                     5693.8000
615.500                     5785.5000
616.000                     5698.3000
616.500                     5777.0000
617.000                     5692.7000
617.500                     5842.0000
618.000                     5715.9000
618.500                     5743.3000
619.000                     5801.7000
619.500                     5822.7000
620.000                     5651.7000
620.500                     5620.2000
621.000                     5707.2000
621.500                     5619.9000
622.000                     5695.1000
622.500                     5773.1000
623.000                     5692.4000
623.500                     5793.4000
624.000                     5733.5000
624.500                     5631.5000
625.000                     5630.6000
625.500                     5774.8000
626.000                     5688.1000
626.500                     5747.4000
627.000                     5602.4000
627.500                     5771.7000
628.000                     5743.8000
628.500                     5817.8000
629.000                     5910.8000
629.500                     5734.8000
630.000                     5764.0000
630.500                     5759.4000
631.000                     5744.1000
631.500                     5751.2000
632.000                     5733.6000
632.500                     5601.0000
633.000                     5739.4000
633.500                     5633.0000
634.000                     5756.7000
634.500                     5840.0000
635.000                     5804.9000
635.500                     5611.2000
636.000                     5685.5000
636.500                     5747.8000
637.000                     5706.1000
637.500                     5896.4000
638.000                     5744.1000
638.500                     5774.5000
639.000                     5719.1000
639.500                     5742.4000
640.000                     5730.5000
640.500                     5757.7000
641.000                     5688.2000
641.500                     5744.6000
642.000                     5732.4000
642.500                     5707.7000
643.000                     5668.8000
643.500                     5789.1000
644.000                     5779.4000
644.500                     5832.8000
645.000                     5774.7000
645.500                     5698.5000
646.000                     5771.8000
646.500                     5829.7000
647.000                     5745.2000
647.500                     5734.1000
648.000                     5740.5000
648.500                     5760.1000
649.000                     5674.7000
649.500                     5725.1000
650.000                     5763.7000
650.500                     5853.6000
651.000                     5827.0000
651.500                     5688.2000
652.000                     5772.3000
652.500                     5705.0000
653.000                     5699.2000
653.500                     5822.3000
654.000                     5860.0000
654.500                     5725.2000
655.000                     5654.1000
655.500                     5664.5000
656.000                     5662.0000
656.500                     5751.1000
657.000                     5667.3000
657.500                     5724.2000
658.000                     5719.4000
658.500                     5783.4000
659.000                     5639.7000
659.500                     5700.9000
660.000                     5601.3000
660.500                     5734.6000
661.000                     5766.0000
661.500                     5709.8000
662.000                     5658.8000
662.500                     5667.6000
663.000                     5613.9000
663.500                     5762.0000
664.000                     5799.5000
664.500                     5716.6000
665.000                     5728.5000
665.500                     5644.1000
666.000                     5581.2000
666.500                     5736.5000
667.000                     5757.0000
667.500                     5686.1000
668.000                     5700.6000
668.500                     5723.2000
669.000                     5717.6000
669.500                     5807.0000
670.000                     5685.3000
670.500                     5669.9000
671.000                     5724.3000
671.500                     5803.1000
672.000                     5758.1000
672.500                     5581.5000
673.000                     5657.6000
673.500                     5745.2000
674.000                     5819.9000
674.500                     5691.6000
675.000                     5621.6000
675.500                     5783.8000
676.000                     5821.7000
676.500                     5799.2000
677.000                     5745.6000
677.500                     5759.1000
678.000                     5661.7000
678.500                     5712.8000
679.000                     5773.5000
679.500                     5718.9000
680.000                     5697.0000
680.500                     5611.1000
681.000                     5810.8000
681.500                     5773.9000
682.000                     5687.0000
682.500                     5686.1000
683.000                     5686.5000
683.500                     5692.0000
684.000                     5682.6000
684.500                     5635.7000
685.000                     5742.8000
685.500                     5620.4000
686.000                     5653.5000
686.500                     5635.0000
687.000                     5805.8000
687.500                     5729.4000
688.000                     5653.7000
688.500                     5734.2000
689.000                     5667.4000
689.500                     5762.5000
690.000                     5672.8000
690.500                     5744.3000
691.000                     5765.2000
691.500                     5805.0000
692.000                     5707.4000
692.500                     5878.7000
693.000                     5792.1000
693.500                     5913.2000
694.000                     5854.1000
694.500                     5970.5000
695.000                     5925.0000
695.500                     5839.4000
696.000                     5924.1000
696.500                     5949.9000
697.000                     5888.5000
697.500                     5930.7000
698.000                     5936.2000
698.500                     5971.8000
699.000                     5904.3000
699.500                     5939.1000
700.000                     5892.4000
700.500                     5753.5000
701.000                     5895.5000
701.500                     5821.3000
702.000                     5725.5000
702.500                     5666.8000
703.000                     5772.4000
703.500                     5788.8000
704.000                     5652.8000
704.500                     5644.1000
705.000                     5631.3000
705.500                     5548.2000
706.000                     5487.8000
706.500                     5519.5000
707.000                     5460.5000
707.500                     5375.5000
708.000                     5304.3000
708.500                     5373.5000
709.000                     5307.2000
709.500                     5229.6000
710.000                     5258.7000
710.500                     5307.3000
711.000                     5178.4000
711.500                     5131.3000
712.000                     4996.0000
712.500                     5206.3000
713.000                     5172.8000
713.500                     5239.8000
714.000                     5188.5000
714.500                     5205.7000
715.000                     5352.7000
715.500                     5341.5000
716.000                     5391.1000
716.500                     5368.7000
717.000                     5492.0000
717.500                     5584.2000
718.000                     5901.9000
718.500                     6604.7000
719.000                     7953.7000
719.500                     9971.7000
720.000                    12172.0000
720.500                    13322.0000
721.000                    13084.4000
721.500                    11420.0000
722.000                     8904.0000
722.500                     7017.5000
723.000                     5958.6000
723.500                     5269.1000
724.000                     5215.0000
724.500                     5058.3000
725.000                     5060.9000
725.500                     4894.4000
726.000                     4925.3000
726.500                     4959.9000
727.000                     4949.9000
727.500                     5124.8000
728.000                     5081.5000
728.500                     5279.6000
729.000                     5478.4000
729.500                     5682.9000
730.000                     5439.7000
730.500                     5469.0000
731.000                     5341.4000
731.500                     5185.4000
732.000                     5052.9000
732.500                     4964.4000
733.000                     4817.1000
733.500                     4717.4000
734.000                     4737.4000
734.500                     4764.7000
735.000                     4759.5000
735.500                     4711.6000
736.000                     4625.4000
736.500                     4595.1000
737.000                     4658.5000
737.500                     4668.4000
738.000                     4703.0000
738.500                     4759.4000
739.000                     4788.2000
739.500                     4730.7000
740.000                     4717.6000
740.500                     4737.2000
741.000                     4599.6000
741.500                     4656.1000
742.000                     4653.3000
742.500                     4780.0000
743.000                     4684.5000
743.500                     4623.7000
744.000                     4566.2000
744.500                     4682.2000
745.000                     4598.4000
745.500                     4620.9000
746.000                     4778.1000
746.500                     4675.9000
747.000                     4731.5000
747.500                     4676.8000
748.000                     4626.0000
748.500                     4632.8000
749.000                     4738.4000
749.500                     4871.7000
750.000                     4687.3000
750.500                     4682.4000
751.000                     4688.6000
751.500                     4578.1000
752.000                     4605.5000
752.500                     4589.8000
753.000                     4622.3000
753.500                     4678.3000
754.000                     4728.9000
754.500                     4728.6000
755.000                     4750.3000
755.500                     4611.7000
756.000                     4668.1000
756.500                     4627.2000
757.000                     4488.6000
757.500                     4608.9000
758.000                     4741.1000
758.500                     4513.8000
759.000                     4568.1000
759.500                     4689.5000
760.000                     4592.6000
760.500                     4737.8000
761.000                     4728.6000
761.500                     4621.4000
762.000                     4623.7000
762.500                     4702.2000
763.000                     4565.4000
763.500                     4641.3000
764.000                     4652.9000
764.500                     4736.8000
765.000                     4736.7000
765.500                     4674.0000
766.000                     4670.4000
766.500                     4524.8000
767.000                     4648.6000
767.500                     4682.6000
768.000                     4656.6000
768.500                     4726.9000
769.000                     4674.6000
769.500                     4787.9000
770.000                     4761.5000
770.500                     4656.3000
771.000                     4548.9000
771.500                     4552.6000
772.000                     4605.3000
772.500                     4650.1000
773.000                     4711.6000
773.500                     4645.0000
774.000                     4749.3000
774.500                     4693.1000
775.000                     4684.3000
775.500                     4639.6000
776.000                     4568.6000
776.500                     4673.3000
777.000                     4742.0000
777.500                     4749.5000
778.000                     4589.3000
778.500                     4660.3000
779.000                     4655.5000
779.500                     4665.0000
780.000                     4720.1000
780.500                     4727.9000
781.000                     4723.9000
781.500                     4666.7000
782.000                     4703.2000
782.500                     4725.1000
783.000                     4749.3000
783.500                     4713.2000
784.000                     4635.1000
784.500                     4688.4000
785.000                     4737.1000
785.500                     4656.6000
786.000                     4688.5000
786.500                     4672.3000
787.000                     4663.4000
787.500                     4702.5000
788.000                     4614.1000
788.500                     4684.4000
789.000                     4711.8000
789.500                     4552.6000
790.000                     4557.6000
790.500                     4634.8000
791.000                     4633.2000
791.500                     4687.8000
792.000                     4748.7000
792.500                     4710.1000
793.000                     4733.2000
793.500                     4793.5000
794.000                     4700.5000
794.500                     4583.9000
795.000                     4789.8000
795.500                     4702.4000
796.000                     4729.2000
796.500                     4755.3000
797.000                     4653.0000
797.500                     4701.3000
798.000                     4728.5000
798.500                     4758.5000
799.000                     4689.8000
799.500                     4748.2000
800.000                     4774.6000
800.500                     4607.8000
801.000                     4604.6000
801.500                     4816.7000
802.000                     4769.0000
802.500                     4732.3000
803.000                     4774.7000
803.500                     4694.6000
804.000                     4691.4000
804.500                     4602.0000
805.000                     4736.8000
805.500                     4722.3000
806.000                     4647.2000
806.500                     4764.1000
807.000                     4677.4000
807.500                     4706.4000
808.000                     4791.0000
808.500                     4712.7000
809.000                     4664.5000
809.500                     4747.6000
810.000                     4716.3000
810.500                     4697.4000
811.000                     4655.0000
811.500                     4705.9000
812.000                     4787.1000
812.500                     4839.5000
813.000                     4890.7000
813.500                     4711.3000
814.000                     4634.2000
814.500                     4761.6000
815.000                     4672.8000
815.500                     4901.3000
816.000                     4746.6000
816.500                     4821.2000
817.000                     4736.9000
817.500                     4749.5000
818.000                     4701.8000
818.500                     4729.5000
819.000                     4806.0000
819.500                     4742.9000
820.000                     4763.8000
820.500                     4841.6000
821.000                     4831.5000
821.500                     4782.8000
822.000                     4757.3000
822.500                     4659.8000
823.000                     4660.1000
823.500                     4702.2000
824.000                     4763.6000
824.500                     4764.3000
825.000                     4749.4000
825.500                     4762.7000
826.000                     4818.1000
826.500                     4768.7000
827.000                     4746.5000
827.500                     4735.5000
828.000                     4832.1000
828.500                     4823.5000
829.000                     4803.1000
829.500                     4797.5000
830.000                     4797.1000
830.500                     4771.0000
831.000                     4931.9000
831.500                     4871.6000
832.000                     4681.4000
832.500                     4738.6000
833.000                     4768.3000
833.500                     4776.8000
834.000                     4779.0000
834.500                     4790.7000
835.000                     4799.4000
835.500                     4817.8000
836.000                     4763.2000
836.500                     4810.1000
837.000                     4773.8000
837.500                     4881.5000
838.000                     4805.2000
838.500                     4813.1000
839.000                     4867.1000
839.500                     4880.4000
840.000                     4910.5000
840.500                     4910.1000
841.000                     4829.8000
841.500                     4773.6000
842.000                     4719.9000
842.500                     4741.4000
843.000                     4820.7000
843.500                     5029.0000
844.000                     4852.8000
844.500                     4807.0000
845.000                     4795.3000
845.500                     4862.0000
846.000                     4817.2000
846.500                     4887.4000
847.000                     4874.8000
847.500                     4803.4000
848.000                     4890.6000
848.500                     4929.8000
849.000                     4947.8000
849.500                     4891.5000
850.000                     4908.2000
850.500                     4950.0000
851.000                     4806.5000
851.500                     4893.4000
852.000                     4862.9000
852.500                     4893.6000
853.000                     4994.9000
853.500                     5098.8000
854.000                     4948.3000
854.500                     4972.5000
855.000                     4940.7000
855.500                     4964.7000
856.000                     4902.5000
856.500                     4824.2000
857.000                     4882.0000
857.500                     4949.8000
858.000                     4868.0000
858.500                     4874.7000
859.000                     4835.4000
859.500                     4892.6000
860.000                     4908.7000
860.500                     4904.1000
861.000                     4951.0000
861.500                     4925.2000
862.000                     4947.4000
862.500                     4978.6000
863.000                     4893.7000
863.500                     4943.4000
864.000                     4829.9000
864.500                     4984.6000
865.000                     4915.5000
865.500                     4867.5000
866.000                     4912.3000
866.500                     4919.9000
867.000                     5016.4000
867.500                     4911.1000
868.000                     4864.9000
868.500                     4882.6000
869.000                     4906.3000
869.500                     4890.2000
870.000                     5028.2000
870.500                     4927.1000
871.000                     4908.3000
871.500                     4926.4000
872.000                     4972.6000
872.500                     5051.8000
873.000                     4947.6000
873.500                     4899.0000
874.000                     4963.7000
874.500                     5008.5000
875.000                     5003.6000
875.500                     5004.5000
876.000                     4930.9000
876.500                     5028.0000
877.000                     5088.4000
877.500                     4976.3000
878.000                     4989.4000
878.500                     5013.0000
879.000                     5180.2000
879.500                     5051.7000
880.000                     5127.2000
880.500                     4973.2000
881.000                     4892.9000
881.500                     5059.9000
882.000                     4884.2000
882.500                     5020.5000
883.000                     4918.9000
883.500                     4980.5000
884.000                     5046.7000
884.500                     5068.9000
885.000                     5043.6000
885.500                     5086.7000
886.000                     5033.3000
886.500                     5042.0000
887.000                     5110.1000
887.500                     5066.8000
888.000                     5084.2000
888.500                     5139.0000
889.000                     5152.8000
889.500                     5041.1000
890.000                     5077.3000
890.500                     5068.8000
891.000                     5078.4000
891.500                     5090.9000
892.000                     5068.4000
892.500                     5012.6000
893.000                     5149.5000
893.500                     5090.7000
894.000                     5108.7000
894.500                     5045.6000
895.000                     5141.7000
895.500                     5168.6000
896.000                     5090.3000
896.500                     5172.9000
897.000                     5157.5000
897.500                     5167.4000
898.000                     5173.8000
898.500                     5022.3000
899.000                     5135.8000
899.500                     5184.0000
900.000                     5261.3000
900.500                     5192.1000
901.000                     5264.3000
901.500                     5256.7000
902.000                     5275.2000
902.500                     5273.5000
903.000                     5290.9000
903.500                     5412.9000
904.000                     5215.2000
904.500                     5342.5000
905.000                     5191.7000
905.500                     5216.4000
906.000                     5222.0000
906.500                     5243.6000
907.000                     5317.4000
907.500                     5248.6000
908.000                     5280.1000
908.500                     5264.4000
909.000                     5297.8000
909.500                     5253.5000
910.000                     5330.9000
910.500                     5308.0000
911.000                     5315.2000
911.500                     5286.1000
912.000                     5334.2000
912.500                     5194.3000
913.000                     5357.6000
913.500                     5258.1000
914.000                     5249.7000
914.500                     5286.3000
915.000                     5344.9000
915.500                     5336.4000
916.000                     5271.7000
916.500                     5246.2000
917.000                     5243.6000
917.500                     5139.5000
918.000                     5185.7000
918.500                     5145.3000
919.000                     5164.4000
919.500                     5155.1000
920.000                     5252.3000
920.500                     5231.8000
921.000                     5125.5000
921.500                     5161.6000
922.000                     5108.6000
922.500                     5084.4000
923.000                     5112.4000
923.500                     5172.5000
924.000                     5202.9000
924.500                     5168.4000
925.000                     5106.9000
925.500                     5170.7000
926.000                     5214.2000
926.500                     5170.6000
927.000                     5317.3000
927.500                     5372.6000
928.000                     5295.6000
928.500                     5347.5000
929.000                     5378.1000
929.500                     5412.8000
930.000                     5385.7000
930.500                     5533.6000
931.000                     5613.0000
931.500                     5627.1000
932.000                     5603.5000
932.500                     5592.3000
933.000                     5593.6000
933.500                     5700.7000
934.000                     5780.4000
934.500                     5660.6000
935.000                     5657.6000
935.500                     5640.0000
936.000                     5709.7000
936.500                     5755.3000
937.000                     5808.1000
937.500                     5822.5000
938.000                     5835.1000
938.500                     5819.4000
939.000                     5786.2000
939.500                     5762.4000
940.000                     5773.3000
940.500                     5856.6000
941.000                     5838.7000
941.500                     5820.9000
942.000                     5792.9000
942.500                     5785.4000
943.000                     5730.9000
943.500                     5662.4000
944.000                     5665.0000
944.500                     5607.9000
945.000                     5507.0000
945.500                     5321.2000
946.000                     5237.3000
946.500                     5271.3000
947.000                     5143.5000
947.500                     5032.6000
948.000                     4930.0000
948.500                     4897.1000
949.000                     4844.9000
949.500                     4677.2000
950.000                     4509.6000
950.500                     4393.2000
951.000                     4280.3000
951.500                     4161.4000
952.000                     4140.2000
952.500                     3975.5000
953.000                     3907.3000
953.500                     3952.0000
954.000                     3710.6000
954.500                     3652.8000
955.000                     3619.6000
955.500                     3529.2000
956.000                     3477.6000
956.500                     3528.2000
957.000                     3410.0000
957.500                     3429.9000
958.000                     3572.2000
958.500                     3616.1000
959.000                     3562.7000
959.500                     3609.6000
960.000                     3677.4000
960.500                     3772.2000
961.000                     3847.6000
961.500                     4035.8000
962.000                     4180.1000
962.500                     4282.1000
963.000                     4417.6000
963.500                     4421.7000
964.000                     4619.6000
964.500                     5165.6000
965.000                     5762.5000
965.500                     6939.7000
966.000                     8275.1000
966.500                    10267.6000
967.000                    12749.9000
967.500                    16227.2000
968.000                    20217.7000
968.500                    22902.8000
969.000                    23099.3000
969.500                    18050.2000
970.000                    10442.1000
970.500                     4934.4000
971.000                     2869.2000
971.500                     2272.3000
972.000                     2061.8000
972.500                     1903.6000
973.000                     1848.5000
973.500                     1915.2000
974.000                     1930.5000
974.500                     1992.5000
975.000                     2056.9000
975.500                     2251.6000
976.000                     2550.0000
976.500                     2880.9000
977.000                     3197.5000
977.500                     3240.9000
978.000                     3125.0000
978.500                     2759.1000
979.000                     2445.5000
979.500                     2193.8000
980.000                     1727.5000
980.500                     1415.6000
981.000                     1126.4000
981.500                      983.8000
982.000                      985.6000
982.500                      973.0000
983.000                      975.3000
983.500                     1009.9000
984.000                      938.2000
984.500                      965.4000
985.000                      977.9000
985.500                     1015.3000
986.000                     1029.6000
986.500                     1002.0000
987.000                     1004.3000
987.500                      989.9000
988.000                     1053.6000
988.500                      991.9000
989.000                      992.3000
989.500                      963.6000
990.000                      931.1000
990.500                      874.0000
991.000                      882.2000
991.500                      836.2000
992.000                      810.4000
992.500                      825.0000
993.000                      827.4000
993.500                      776.7000
994.000                      769.0000
994.500                      772.6000
995.000                      778.7000
995.500                      770.1000
996.000                      801.5000
996.500                      767.9000
997.000                      753.3000
997.500                      795.1000
998.000                      770.0000
998.500                      759.4000
999.000                      730.6000
999.500                      771.5000
1000.000                     763.5000
1000.500                     734.4000
1001.000                     724.1000
1001.500                     722.4000
1002.000                     715.7000
1002.500                     719.4000
1003.000                     713.8000
1003.500                     683.6000
1004.000                     710.3000
1004.500                     729.0000
1005.000                     717.7000
1005.500                     712.1000
1006.000                     703.2000
1006.500                     702.1000
1007.000                     724.4000
1007.500                     691.6000
1008.000                     708.5000
1008.500                     730.9000
1009.000                     732.5000
1009.500                     754.7000
1010.000                     725.1000
1010.500                     763.6000
1011.000                     822.4000
1011.500                     793.1000
1012.000                     815.1000
1012.500                     751.8000
1013.000                     780.9000
1013.500                     789.9000
1014.000                     789.6000
1014.500                     748.5000
1015.000                     790.3000
1015.500                     767.7000
1016.000                     751.1000
1016.500                     751.3000
1017.000                     732.6000
1017.500                     766.8000
1018.000                     725.0000
1018.500                     677.6000
1019.000                     718.6000
1019.500                     654.2000
1020.000                     637.5000
1020.500                     643.4000
1021.000                     601.9000
1021.500                     628.9000
1022.000                     630.0000
1022.500                     690.7000
1023.000                     647.2000
1023.500                     628.9000
1024.000                     633.8000
1024.500                     664.1000
1025.000                     647.0000
1025.500                     670.9000
1026.000                     636.5000
1026.500                     625.6000
1027.000                     631.1000
1027.500                     624.8000
1028.000                     632.4000
1028.500                     595.4000
1029.000                     623.7000
1029.500                     635.0000
1030.000                     631.3000
1030.500                     643.9000
1031.000                     597.5000
1031.500                     636.9000
1032.000                     585.9000
1032.500                     617.1000
1033.000                     638.7000
1033.500                     658.6000
1034.000                     656.0000
1034.500                     642.3000
1035.000                     607.9000
1035.500                     584.1000
1036.000                     613.1000
1036.500                     655.1000
1037.000                     614.6000
1037.500                     606.3000
1038.000                     626.7000
1038.500                     631.3000
1039.000                     566.5000
1039.500                     620.5000
1040.000                     619.3000
1040.500                     586.8000
1041.000                     663.2000
1041.500                     650.1000
1042.000                     585.9000
1042.500                     624.4000
1043.000                     623.2000
1043.500                     600.9000
1044.000                     585.9000
1044.500                     622.0000
1045.000                     600.4000
1045.500                     587.1000
1046.000                     595.8000
1046.500                     641.0000
1047.000                     598.7000
1047.500                     610.6000
1048.000                     629.2000
1048.500                     605.5000
1049.000                     630.7000
1049.500                     615.5000
1050.000                     601.3000
1050.500                     575.6000
1051.000                     609.8000
1051.500                     599.5000
1052.000                     574.4000
1052.500                     627.5000
1053.000                     594.6000
1053.500                     602.4000
1054.000                     590.4000
1054.500                     620.6000
1055.000                     581.8000
1055.500                     627.2000
1056.000                     583.0000
1056.500                     593.4000
1057.000                     581.3000
1057.500                     597.4000
1058.000                     626.1000
1058.500                     582.7000
1059.000                     574.8000
1059.500                     584.1000
1060.000                     576.8000
1060.500                     590.1000
1061.000                     588.0000
1061.500                     593.9000
1062.000                     610.6000
1062.500                     599.4000
1063.000                     615.9000
1063.500                     587.9000
1064.000                     606.1000
1064.500                     602.1000
1065.000                     606.8000
1065.500                     611.1000
1066.000                     604.0000
1066.500                     624.7000
1067.000                     621.3000
1067.500                     599.0000
1068.000                     596.1000
1068.500                     582.3000
1069.000                     589.6000
1069.500                     564.2000
1070.000                     584.5000
1070.500                     595.1000
1071.000                     599.0000
1071.500                     575.2000
1072.000                     587.4000
1072.500                     628.9000
1073.000                     576.3000
1073.500                     593.4000
1074.000                     578.6000
1074.500                     581.5000
1075.000                     573.7000
1075.500                     561.8000
1076.000                     614.3000
1076.500                     581.4000
1077.000                     574.0000
1077.500                     559.0000
1078.000                     578.7000
1078.500                     601.6000
1079.000                     595.0000
1079.500                     628.6000
1080.000                     570.8000
1080.500                     568.4000
1081.000                     603.3000
1081.500                     579.8000
1082.000                     577.6000
1082.500                     594.6000
1083.000                     591.6000
1083.500                     582.0000
1084.000                     602.7000
1084.500                     626.7000
1085.000                     614.3000
1085.500                     587.9000
1086.000                     612.2000
1086.500                     599.7000
1087.000                     591.8000
1087.500                     595.9000
1088.000                     599.5000
1088.500                     603.2000
1089.000                     580.2000
1089.500                     573.9000
1090.000                     619.5000
1090.500                     590.7000
1091.000                     544.5000
1091.500                     553.6000
1092.000                     586.6000
1092.500                     571.0000
1093.000                     632.4000
1093.500                     582.8000
1094.000                     562.5000
1094.500                     595.8000
1095.000                     598.9000
1095.500                     602.0000
1096.000                     578.8000
1096.500                     569.9000
1097.000                     592.4000
1097.500                     590.1000
1098.000                     606.5000
1098.500                     604.4000
1099.000                     575.4000
1099.500                     617.6000
1100.000                     588.9000
1100.500                     560.6000
1101.000                     579.8000
1101.500                     579.9000
1102.000                     596.9000
1102.500                     573.9000
1103.000                     557.8000
1103.500                     582.4000
1104.000                     608.0000
1104.500                     563.6000
1105.000                     571.6000
1105.500                     599.4000
1106.000                     545.5000
1106.500                     546.5000
1107.000                     581.6000
1107.500                     542.8000
1108.000                     551.4000
1108.500                     575.7000
1109.000                     564.6000
1109.500                     600.5000
1110.000                     578.2000
1110.500                     567.5000
1111.000                     578.4000
1111.500                     541.7000
1112.000                     526.6000
1112.500                     546.4000
1113.000                     552.5000
1113.500                     577.2000
1114.000                     599.4000
1114.500                     590.1000
1115.000                     555.5000
1115.500                     545.0000
1116.000                     546.9000
1116.500                     553.3000
1117.000                     555.8000
1117.500                     600.9000
1118.000                     570.8000
1118.500                     558.4000
1119.000                     592.9000
1119.500                     531.8000
1120.000                     555.2000
1120.500                     532.4000
1121.000                     552.9000
1121.500                     521.7000
1122.000                     541.4000
1122.500                     581.6000
1123.000                     567.9000
1123.500                     586.4000
1124.000                     574.5000
1124.500                     570.9000
1125.000                     582.8000
1125.500                     574.1000
1126.000                     603.0000
1126.500                     566.9000
1127.000                     572.1000
1127.500                     567.0000
1128.000                     565.7000
1128.500                     553.1000
1129.000                     521.8000
1129.500                     552.4000
1130.000                     571.2000
1130.500                     565.3000
1131.000                     583.0000
1131.500                     576.0000
1132.000                     560.8000
1132.500                     564.6000
1133.000                     527.3000
1133.500                     557.5000
1134.000                     542.7000
1134.500                     548.9000
1135.000                     537.2000
1135.500                     560.2000
1136.000                     554.4000
1136.500                     564.3000
1137.000                     551.3000
1137.500                     577.0000
1138.000                     579.2000
1138.500                     594.1000
1139.000                     537.2000
1139.500                     530.4000
1140.000                     574.5000
1140.500                     550.9000
1141.000                     545.4000
1141.500                     579.3000
1142.000                     612.4000
1142.500                     586.1000
1143.000                     552.1000
1143.500                     539.9000
1144.000                     545.5000
1144.500                     526.4000
1145.000                     535.7000
1145.500                     526.4000
1146.000                     528.5000
1146.500                     568.3000
1147.000                     569.0000
1147.500                     565.6000
1148.000                     576.1000
1148.500                     559.3000
1149.000                     587.1000
1149.500                     574.0000
1150.000                     555.2000
1150.500                     585.5000
1151.000                     593.4000
1151.500                     580.8000
1152.000                     577.4000
1152.500                     595.4000
1153.000                     551.8000
1153.500                     551.7000
1154.000                     499.7000
1154.500                     523.6000
1155.000                     546.1000
1155.500                     533.3000
1156.000                     527.5000
1156.500                     528.1000
1157.000                     547.4000
1157.500                     545.0000
1158.000                     568.5000
1158.500                     553.3000
1159.000                     539.4000
1159.500                     565.7000
1160.000                     571.3000
1160.500                     575.8000
1161.000                     538.1000
1161.500                     541.8000
1162.000                     566.6000
1162.500                     554.4000
1163.000                     538.5000
1163.500                     548.3000
1164.000                     577.4000
1164.500                     552.0000
1165.000                     530.0000
1165.500                     568.5000
1166.000                     543.8000
1166.500                     535.2000
1167.000                     574.6000
1167.500                     547.8000
1168.000                     513.7000
1168.500                     567.5000
1169.000                     553.7000
1169.500                     574.8000
1170.000                     546.4000
1170.500                     557.5000
1171.000                     573.6000
1171.500                     555.3000
1172.000                     507.8000
1172.500                     524.7000
1173.000                     507.7000
1173.500                     537.3000
1174.000                     565.9000
1174.500                     529.8000
1175.000                     532.0000
1175.500                     507.9000
1176.000                     530.4000
1176.500                     534.9000
1177.000                     509.7000
1177.500                     532.6000
1178.000                     530.8000
1178.500                     533.8000
1179.000                     490.8000
1179.500                     491.4000
1180.000                     516.5000
1180.500                     519.9000
1181.000                     508.0000
1181.500                     524.2000
1182.000                     532.4000
1182.500                     498.1000
1183.000                     517.2000
1183.500                     545.3000
1184.000                     564.0000
1184.500                     543.1000
1185.000                     531.7000
1185.500                     502.6000
1186.000                     518.2000
1186.500                     537.1000
1187.000                     540.4000
1187.500                     516.9000
1188.000                     515.3000
1188.500                     503.1000
1189.000                     511.2000
1189.500                     527.7000
1190.000                     518.6000
1190.500                     519.0000
1191.000                     496.8000
1191.500                     499.6000
1192.000                     515.7000
1192.500                     495.7000
1193.000                     520.3000
1193.500                     529.4000
1194.000                     529.1000
1194.500                     539.9000
1195.000                     500.4000
1195.500                     530.1000
1196.000                     548.1000
1196.500                     528.5000
1197.000                     519.0000
1197.500                     592.7000
1198.000                     518.8000
1198.500                     506.0000
1199.000                     524.8000
1199.500                     608.0000
1200.000                     562.8000
1200.500                     598.4000
1201.000                     571.2000
1201.500                     647.1000
1202.000                     627.4000
1202.500                     636.6000
1203.000                     583.4000
1203.500                     544.7000
1204.000                     512.4000
1204.500                     466.7000
1205.000                     517.3000
1205.500                     498.3000
1206.000                     509.0000
1206.500                     517.5000
1207.000                     495.2000
1207.500                     534.8000
1208.000                     544.2000
1208.500                     500.5000
1209.000                     494.4000
1209.500                     494.7000
1210.000                     469.0000
1210.500                     489.5000
1211.000                     506.9000
1211.500                     517.6000
1212.000                     475.4000
1212.500                     517.1000
1213.000                     509.8000
1213.500                     445.6000
1214.000                     457.1000
1214.500                     502.0000
1215.000                     496.0000
1215.500                     471.7000
1216.000                     479.5000
1216.500                     455.5000
1217.000                     449.6000
1217.500                     490.5000
1218.000                     475.2000
1218.500                     470.2000
1219.000                     493.0000
1219.500                     470.4000
1220.000                     454.3000
1220.500                     478.2000
1221.000                     482.1000
1221.500                     444.4000
1222.000                     447.8000
1222.500                     457.6000
1223.000                     485.0000
1223.500                     482.6000
1224.000                     440.6000
1224.500                     455.2000
1225.000                     528.5000
1225.500                     518.5000
1226.000                     526.0000
1226.500                     552.3000
1227.000                     597.2000
1227.500                     562.7000
1228.000                     546.0000
1228.500                     501.9000
1229.000                     525.6000
1229.500                     518.0000
1230.000                     481.6000
1230.500                     509.4000
1231.000                     513.7000
1231.500                     509.9000
1232.000                     490.7000
1232.500                     502.9000
1233.000                     531.9000
1233.500                     572.5000
1234.000                     551.8000
1234.500                     569.3000
1235.000                     571.2000
1235.500                     587.5000
1236.000                     626.3000
1236.500                     562.4000
1237.000                     533.4000
1237.500                     560.6000
1238.000                     531.7000
1238.500                     517.7000
1239.000                     507.9000
1239.500                     543.9000
1240.000                     488.7000
1240.500                     477.2000
1241.000                     497.6000
1241.500                     480.6000
1242.000                     485.3000
1242.500                     473.5000
1243.000                     442.8000
1243.500                     434.3000
1244.000                     458.7000
1244.500                     436.5000
1245.000                     416.9000
1245.500                     414.5000
1246.000                     403.2000
1246.500                     419.9000
1247.000                     378.7000
1247.500                     398.8000
1248.000                     372.9000
1248.500                     337.8000
1249.000                     362.7000
1249.500                     353.0000
1250.000                     334.4000
1250.500                     320.3000
1251.000                     307.4000
1251.500                     318.8000
1252.000                     297.4000
1252.500                     297.3000
1253.000                     310.5000
1253.500                     301.7000
1254.000                     268.3000
1254.500                     270.0000
1255.000                     300.9000
1255.500                     290.8000
1256.000                     291.5000
1256.500                     290.6000
1257.000                     259.7000
1257.500                     254.9000
1258.000                     265.8000
1258.500                     250.1000
1259.000                     272.2000
1259.500                     244.7000
1260.000                     248.6000
