# Transition                      C 1s
# Notes                           
# Creation Comment                
# Energy Mode                     KE
# Start Energy in eV              957
# End Energy in eV                991
# Energy Step in eV               0.1
# Number Of Sweeps                3
# Dwell Time per Sweep in s       0.3
# Analyser Mode                   CAE
# Pass Energy in eV/Retard Ratio  25
# Magnification                   high
# Divide Voltages By 10           off
# Excitation Source               Mg Ka 1253.6 eV normal
# Excitation Energy in eV         1253.6
# Analyser Workfunction in eV     4.5
# Entrance Slit                   6 x 12 mm
# Exit Slit                       5 x 11 mm
# 
# 
# Kinetic Energy in eV         Counts
# --------------------         ------
957.000                     2594.2500
957.100                     2683.5000
957.200                     2690.7500
957.300                     2654.2500
957.400                     2678.7500
957.500                     2644.7500
957.600                     2654.0000
957.700                     2724.5000
957.800                     2741.2500
957.900                     2692.5000
958.000                     2764.5000
958.100                     2688.7500
958.200                     2646.7500
958.300                     2658.2500
958.400                     2703.5000
958.500                     2809.5000
958.600                     2826.0000
958.700                     2771.7500
958.800                     2766.5000
958.900                     2832.2500
959.000                     2753.7500
959.100                     2754.5000
959.200                     2895.7500
959.300                     2855.0000
959.400                     2824.2500
959.500                     2826.0000
959.600                     2798.0000
959.700                     2833.2500
959.800                     2831.7500
959.900                     2875.7500
960.000                     2811.7500
960.100                     2859.5000
960.200                     2782.5000
960.300                     2796.7500
960.400                     2818.2500
960.500                     2831.5000
960.600                     2904.7500
960.700                     2870.5000
960.800                     2884.7500
960.900                     2947.7500
961.000                     2976.0000
961.100                     2993.0000
961.200                     3031.5000
961.300                     3009.0000
961.400                     2989.2500
961.500                     3111.7500
961.600                     3140.7500
961.700                     3161.7500
961.800                     3219.2500
961.900                     3241.5000
962.000                     3305.7500
962.100                     3241.2500
962.200                     3232.0000
962.300                     3332.5000
962.400                     3294.2500
962.500                     3275.7500
962.600                     3331.2500
962.700                     3395.7500
962.800                     3381.0000
962.900                     3238.0000
963.000                     3323.7500
963.100                     3370.2500
963.200                     3472.2500
963.300                     3428.2500
963.400                     3309.5000
963.500                     3355.0000
963.600                     3363.2500
963.700                     3369.5000
963.800                     3382.2500
963.900                     3395.0000
964.000                     3526.2500
964.100                     3455.5000
964.200                     3505.0000
964.300                     3635.2500
964.400                     3575.5000
964.500                     3569.7500
964.600                     3726.0000
964.700                     3769.5000
964.800                     3931.0000
964.900                     3988.7500
965.000                     4042.0000
965.100                     4067.7500
965.200                     4275.0000
965.300                     4249.0000
965.400                     4504.5000
965.500                     4601.5000
965.600                     4827.0000
965.700                     4962.2500
965.800                     5090.5000
965.900                     5400.7500
966.000                     5677.7500
966.100                     5908.5000
966.200                     6050.0000
966.300                     6417.2500
966.400                     6794.5000
966.500                     7226.5000
966.600                     7692.2500
966.700                     7969.0000
966.800                     8368.7500
966.900                     8697.5000
967.000                     9073.0000
967.100                     9414.2500
967.200                     9611.7500
967.300                     9838.0000
967.400                     9875.0000
967.500                    10073.5000
967.600                    10232.2500
967.700                    10700.0000
967.800                    11003.7500
967.900                    11458.7500
968.000                    12270.0000
968.100                    13179.7500
968.200                    14385.2500
968.300                    15769.7500
968.400                    17527.0000
968.500                    19073.0000
968.600                    20676.5000
968.700                    22490.5000
968.800                    23504.0000
968.900                    24611.7500
969.000                    25265.2500
969.100                    25190.0000
969.200                    23965.5000
969.300                    22247.0000
969.400                    20418.2500
969.500                    17673.0000
969.600                    15023.2500
969.700                    12419.2500
969.800                    10138.5000
969.900                     8065.5000
970.000                     6545.7500
970.100                     5264.7500
970.200                     4417.2500
970.300                     3739.5000
970.400                     3250.2500
970.500                     2963.0000
970.600                     2649.2500
970.700                     2326.0000
970.800                     2194.7500
970.900                     2204.0000
971.000                     2105.2500
971.100                     1937.2500
971.200                     1852.0000
971.300                     1771.0000
971.400                     1740.5000
971.500                     1740.0000
971.600                     1650.2500
971.700                     1598.2500
971.800                     1584.5000
971.900                     1595.5000
972.000                     1572.7500
972.100                     1552.7500
972.200                     1522.0000
972.300                     1448.5000
972.400                     1429.2500
972.500                     1488.2500
972.600                     1512.7500
972.700                     1471.2500
972.800                     1487.7500
972.900                     1475.5000
973.000                     1422.7500
973.100                     1434.0000
973.200                     1439.0000
973.300                     1483.0000
973.400                     1473.2500
973.500                     1506.0000
973.600                     1556.7500
973.700                     1598.7500
973.800                     1513.5000
973.900                     1529.0000
974.000                     1572.5000
974.100                     1530.0000
974.200                     1488.7500
974.300                     1531.2500
974.400                     1470.0000
974.500                     1571.2500
974.600                     1549.0000
974.700                     1533.5000
974.800                     1591.0000
974.900                     1583.0000
975.000                     1580.0000
975.100                     1589.7500
975.200                     1594.0000
975.300                     1592.0000
975.400                     1587.7500
975.500                     1658.2500
975.600                     1651.5000
975.700                     1729.7500
975.800                     1699.7500
975.900                     1749.2500
976.000                     1761.5000
976.100                     1724.2500
976.200                     1791.5000
976.300                     1842.5000
976.400                     1912.7500
976.500                     1976.0000
976.600                     2049.2500
976.700                     2196.0000
976.800                     2363.7500
976.900                     2505.0000
977.000                     2702.2500
977.100                     2739.0000
977.200                     2772.2500
977.300                     2914.5000
977.400                     2963.2500
977.500                     2961.5000
977.600                     2997.2500
977.700                     2891.0000
977.800                     2769.5000
977.900                     2592.7500
978.000                     2542.2500
978.100                     2402.5000
978.200                     2282.2500
978.300                     2184.0000
978.400                     2120.5000
978.500                     2056.2500
978.600                     2030.0000
978.700                     2046.7500
978.800                     2027.2500
978.900                     2103.2500
979.000                     2106.5000
979.100                     2125.5000
979.200                     2131.0000
979.300                     2104.7500
979.400                     2041.2500
979.500                     2042.7500
979.600                     1971.0000
979.700                     1881.0000
979.800                     1722.5000
979.900                     1671.2500
980.000                     1503.7500
980.100                     1386.2500
980.200                     1318.5000
980.300                     1141.0000
980.400                     1050.2500
980.500                      971.7500
980.600                      992.5000
980.700                      942.7500
980.800                      891.0000
980.900                      880.7500
981.000                      840.5000
981.100                      871.5000
981.200                      825.7500
981.300                      821.5000
981.400                      799.5000
981.500                      816.0000
981.600                      794.2500
981.700                      773.5000
981.800                      793.7500
981.900                      762.5000
982.000                      765.5000
982.100                      760.7500
982.200                      763.7500
982.300                      783.0000
982.400                      780.2500
982.500                      776.2500
982.600                      758.5000
982.700                      770.2500
982.800                      756.0000
982.900                      791.0000
983.000                      770.0000
983.100                      757.2500
983.200                      773.7500
983.300                      757.2500
983.400                      767.5000
983.500                      749.0000
983.600                      747.2500
983.700                      779.5000
983.800                      812.5000
983.900                      784.2500
984.000                      775.7500
984.100                      784.7500
984.200                      751.5000
984.300                      761.2500
984.400                      783.2500
984.500                      781.0000
984.600                      772.7500
984.700                      783.5000
984.800                      798.2500
984.900                      809.7500
985.000                      803.7500
985.100                      816.5000
985.200                      833.7500
985.300                      779.0000
985.400                      772.5000
985.500                      841.0000
985.600                      816.2500
985.700                      893.0000
985.800                      844.2500
985.900                      825.0000
986.000                      819.0000
986.100                      829.5000
986.200                      836.5000
986.300                      791.5000
986.400                      892.7500
986.500                      853.2500
986.600                      808.5000
986.700                      863.5000
986.800                      843.0000
986.900                      866.2500
987.000                      857.7500
987.100                      816.7500
987.200                      804.0000
987.300                      789.0000
987.400                      791.2500
987.500                      781.0000
987.600                      803.2500
987.700                      759.7500
987.800                      773.0000
987.900                      805.0000
988.000                      794.7500
988.100                      745.2500
988.200                      779.5000
988.300                      766.2500
988.400                      728.0000
988.500                      803.2500
988.600                      837.0000
988.700                      736.5000
988.800                      805.0000
988.900                      780.2500
989.000                      786.2500
989.100                      758.0000
989.200                      812.0000
989.300                      759.7500
989.400                      770.2500
989.500                      774.5000
989.600                      781.5000
989.700                      791.5000
989.800                      763.7500
989.900                      769.5000
990.000                      706.5000
990.100                      733.2500
990.200                      712.0000
990.300                      751.5000
990.400                      742.7500
990.500                      701.5000
990.600                      697.5000
990.700                      725.7500
990.800                      739.0000
990.900                      726.5000
991.000                      735.7500
