# Transition                      wide AlKalfa
# Notes                           
# Creation Comment                
# Energy Mode                     KE
# Start Energy in eV              99.7
# End Energy in eV                1492.7
# Energy Step in eV               0.5
# Number Of Sweeps                1
# Dwell Time per Sweep in s       0.1
# Analyser Mode                   CAE
# Pass Energy in eV/Retard Ratio  50
# Magnification                   high
# Divide Voltages By 10           off
# Excitation Source               Al Ka 1486.7 eV mono
# Excitation Energy in eV         1486.7
# Analyser Workfunction in eV     4.5
# Entrance Slit                   6 x 12 mm
# Exit Slit                       5 x 11 mm
# 
# 
# Kinetic Energy in eV         Counts
# --------------------         ------
99.700                     72248.5000
100.200                    71921.4000
100.700                    71965.6000
101.200                    71551.3000
101.700                    71002.7000
102.200                    70804.4000
102.700                    70673.3000
103.200                    70556.0000
103.700                    70077.3000
104.200                    70162.2000
104.700                    69348.6000
105.200                    69233.4000
105.700                    69547.3000
106.200                    69088.3000
106.700                    68289.6000
107.200                    67656.5000
107.700                    67609.8000
108.200                    67711.0000
108.700                    67790.9000
109.200                    67536.6000
109.700                    67034.4000
110.200                    66834.2000
110.700                    66791.9000
111.200                    66153.4000
111.700                    65808.1000
112.200                    65578.9000
112.700                    65468.5000
113.200                    64830.6000
113.700                    64836.6000
114.200                    64821.9000
114.700                    64132.0000
115.200                    64169.0000
115.700                    64526.6000
116.200                    64033.3000
116.700                    63593.0000
117.200                    63280.7000
117.700                    63260.5000
118.200                    63354.9000
118.700                    62886.1000
119.200                    62669.6000
119.700                    62066.0000
120.200                    62769.2000
120.700                    62193.1000
121.200                    62182.3000
121.700                    61751.5000
122.200                    61733.0000
122.700                    61738.6000
123.200                    61288.7000
123.700                    60873.4000
124.200                    60721.3000
124.700                    60654.5000
125.200                    61108.6000
125.700                    59999.6000
126.200                    60254.5000
126.700                    59814.6000
127.200                    59726.4000
127.700                    59689.2000
128.200                    59664.9000
128.700                    59358.7000
129.200                    58995.7000
129.700                    58981.5000
130.200                    58524.0000
130.700                    58684.9000
131.200                    58451.8000
131.700                    58491.2000
132.200                    57832.8000
132.700                    58104.9000
133.200                    57516.1000
133.700                    57502.5000
134.200                    56971.3000
134.700                    57331.7000
135.200                    56836.0000
135.700                    56632.1000
136.200                    56465.6000
136.700                    56336.4000
137.200                    56268.8000
137.700                    56232.0000
138.200                    55827.1000
138.700                    55667.7000
139.200                    55518.4000
139.700                    54943.6000
140.200                    55206.4000
140.700                    54910.5000
141.200                    54938.3000
141.700                    55157.0000
142.200                    54682.6000
142.700                    54466.6000
143.200                    54316.8000
143.700                    54496.1000
144.200                    54229.2000
144.700                    54071.6000
145.200                    53971.3000
145.700                    53583.7000
146.200                    53101.3000
146.700                    52835.8000
147.200                    52892.5000
147.700                    52698.0000
148.200                    52565.8000
148.700                    52440.6000
149.200                    52170.4000
149.700                    52236.9000
150.200                    51831.0000
150.700                    51648.7000
151.200                    51440.5000
151.700                    51204.0000
152.200                    51150.6000
152.700                    50546.4000
153.200                    50193.8000
153.700                    49837.2000
154.200                    49615.7000
154.700                    49386.8000
155.200                    49038.0000
155.700                    49221.1000
156.200                    48583.1000
156.700                    48131.2000
157.200                    47709.2000
157.700                    47560.3000
158.200                    47583.5000
158.700                    47003.6000
159.200                    47389.4000
159.700                    47204.8000
160.200                    46978.1000
160.700                    47024.4000
161.200                    46703.7000
161.700                    46931.5000
162.200                    46852.7000
162.700                    46503.1000
163.200                    46358.2000
163.700                    46199.4000
164.200                    45794.5000
164.700                    45532.7000
165.200                    45282.2000
165.700                    45220.0000
166.200                    45068.8000
166.700                    44531.4000
167.200                    44487.8000
167.700                    44360.2000
168.200                    44472.0000
168.700                    43700.6000
169.200                    43338.8000
169.700                    43073.5000
170.200                    43105.4000
170.700                    42960.1000
171.200                    42485.6000
171.700                    42322.4000
172.200                    42443.7000
172.700                    42309.3000
173.200                    41863.3000
173.700                    41765.7000
174.200                    41842.9000
174.700                    41510.6000
175.200                    41228.9000
175.700                    41214.6000
176.200                    41191.6000
176.700                    41098.3000
177.200                    41083.6000
177.700                    40863.6000
178.200                    40807.2000
178.700                    40586.5000
179.200                    40606.1000
179.700                    40499.6000
180.200                    40218.6000
180.700                    40249.2000
181.200                    40226.7000
181.700                    40157.1000
182.200                    40136.1000
182.700                    40151.0000
183.200                    39499.4000
183.700                    39935.5000
184.200                    39887.4000
184.700                    39342.5000
185.200                    39418.4000
185.700                    39310.3000
186.200                    39080.0000
186.700                    39033.5000
187.200                    38526.7000
187.700                    38547.9000
188.200                    38290.4000
188.700                    38059.6000
189.200                    37900.3000
189.700                    38063.1000
190.200                    38142.0000
190.700                    37892.8000
191.200                    37700.2000
191.700                    37436.4000
192.200                    37453.3000
192.700                    37140.9000
193.200                    37375.6000
193.700                    37165.1000
194.200                    36908.1000
194.700                    36818.7000
195.200                    36929.4000
195.700                    36853.6000
196.200                    36321.1000
196.700                    36548.4000
197.200                    36518.9000
197.700                    36329.6000
198.200                    35940.5000
198.700                    35991.7000
199.200                    36254.2000
199.700                    36082.9000
200.200                    35846.1000
200.700                    35946.4000
201.200                    35848.5000
201.700                    35427.5000
202.200                    35488.2000
202.700                    35396.9000
203.200                    35304.8000
203.700                    35375.5000
204.200                    34956.6000
204.700                    35239.6000
205.200                    35085.9000
205.700                    34860.0000
206.200                    34736.2000
206.700                    34703.1000
207.200                    34662.2000
207.700                    34653.7000
208.200                    34328.8000
208.700                    34374.0000
209.200                    34203.9000
209.700                    33964.3000
210.200                    34145.0000
210.700                    34000.4000
211.200                    33854.2000
211.700                    33728.5000
212.200                    33562.4000
212.700                    33739.7000
213.200                    33376.1000
213.700                    33464.1000
214.200                    33336.0000
214.700                    33364.5000
215.200                    33176.9000
215.700                    33536.0000
216.200                    32988.7000
216.700                    33079.9000
217.200                    33097.4000
217.700                    32936.8000
218.200                    32799.7000
218.700                    33010.9000
219.200                    32802.6000
219.700                    32913.1000
220.200                    32586.3000
220.700                    32836.0000
221.200                    32521.0000
221.700                    32384.9000
222.200                    32115.4000
222.700                    32256.9000
223.200                    32374.6000
223.700                    32214.4000
224.200                    32013.9000
224.700                    31869.3000
225.200                    31606.5000
225.700                    31946.8000
226.200                    31983.5000
226.700                    31582.8000
227.200                    31679.1000
227.700                    31834.6000
228.200                    31971.1000
228.700                    31709.7000
229.200                    31339.2000
229.700                    31458.1000
230.200                    31601.2000
230.700                    31330.0000
231.200                    31622.2000
231.700                    31338.0000
232.200                    31333.6000
232.700                    30893.6000
233.200                    30903.0000
233.700                    30978.4000
234.200                    31208.8000
234.700                    31512.9000
235.200                    31254.1000
235.700                    31024.1000
236.200                    31242.9000
236.700                    31174.8000
237.200                    31451.0000
237.700                    31465.2000
238.200                    31706.4000
238.700                    31307.3000
239.200                    31081.4000
239.700                    31077.9000
240.200                    30982.4000
240.700                    31026.5000
241.200                    30883.0000
241.700                    30738.7000
242.200                    30563.7000
242.700                    30363.8000
243.200                    30198.3000
243.700                    29958.0000
244.200                    29818.9000
244.700                    29740.3000
245.200                    29548.7000
245.700                    29328.6000
246.200                    29164.1000
246.700                    28882.6000
247.200                    29105.7000
247.700                    28912.7000
248.200                    28924.4000
248.700                    29049.2000
249.200                    28766.1000
249.700                    28808.1000
250.200                    28615.8000
250.700                    28598.6000
251.200                    28643.8000
251.700                    28376.6000
252.200                    28420.8000
252.700                    28450.3000
253.200                    28497.2000
253.700                    28390.4000
254.200                    28467.6000
254.700                    28797.6000
255.200                    28681.8000
255.700                    28487.1000
256.200                    28738.8000
256.700                    28352.3000
257.200                    28807.0000
257.700                    28709.4000
258.200                    28431.4000
258.700                    28234.3000
259.200                    28169.5000
259.700                    28035.0000
260.200                    27738.4000
260.700                    28020.8000
261.200                    27728.4000
261.700                    27373.3000
262.200                    27603.6000
262.700                    27238.5000
263.200                    27214.5000
263.700                    26915.4000
264.200                    27007.5000
264.700                    27187.0000
265.200                    27043.3000
265.700                    26607.0000
266.200                    26244.1000
266.700                    26547.2000
267.200                    26288.0000
267.700                    26094.8000
268.200                    26209.5000
268.700                    26049.2000
269.200                    25652.1000
269.700                    25743.4000
270.200                    25330.1000
270.700                    25300.2000
271.200                    25261.4000
271.700                    25005.5000
272.200                    25237.1000
272.700                    25191.1000
273.200                    24976.9000
273.700                    24852.5000
274.200                    24780.0000
274.700                    24603.0000
275.200                    24646.8000
275.700                    24692.6000
276.200                    24490.7000
276.700                    24472.6000
277.200                    24567.1000
277.700                    24354.5000
278.200                    24265.2000
278.700                    24255.6000
279.200                    24133.2000
279.700                    24284.8000
280.200                    24088.5000
280.700                    24085.4000
281.200                    24212.8000
281.700                    24423.2000
282.200                    24313.8000
282.700                    24187.9000
283.200                    24205.5000
283.700                    24049.1000
284.200                    23734.4000
284.700                    24114.1000
285.200                    24199.9000
285.700                    23999.5000
286.200                    23807.0000
286.700                    23836.6000
287.200                    23590.4000
287.700                    23374.1000
288.200                    23621.2000
288.700                    23798.8000
289.200                    23694.6000
289.700                    23973.4000
290.200                    23707.9000
290.700                    23697.1000
291.200                    23688.6000
291.700                    23594.5000
292.200                    23693.4000
292.700                    23350.0000
293.200                    23452.8000
293.700                    23654.4000
294.200                    23421.6000
294.700                    23612.0000
295.200                    23391.0000
295.700                    23468.5000
296.200                    23503.5000
296.700                    23241.0000
297.200                    23314.7000
297.700                    23159.7000
298.200                    23151.2000
298.700                    23331.0000
299.200                    23361.7000
299.700                    23368.5000
300.200                    23215.6000
300.700                    23232.3000
301.200                    23377.7000
301.700                    23264.5000
302.200                    23116.2000
302.700                    23078.6000
303.200                    23022.1000
303.700                    22870.4000
304.200                    22960.0000
304.700                    22956.4000
305.200                    23001.5000
305.700                    22808.2000
306.200                    22796.1000
306.700                    22836.3000
307.200                    22891.7000
307.700                    22916.8000
308.200                    22648.3000
308.700                    22783.6000
309.200                    22951.1000
309.700                    22616.3000
310.200                    22703.8000
310.700                    22691.9000
311.200                    22676.7000
311.700                    22626.6000
312.200                    22361.5000
312.700                    22389.1000
313.200                    22395.7000
313.700                    22510.4000
314.200                    22598.3000
314.700                    22584.8000
315.200                    22517.9000
315.700                    22317.7000
316.200                    22468.6000
316.700                    22555.2000
317.200                    22386.7000
317.700                    22363.3000
318.200                    22381.9000
318.700                    22451.3000
319.200                    22458.3000
319.700                    22461.2000
320.200                    22219.3000
320.700                    22148.6000
321.200                    22163.8000
321.700                    22599.4000
322.200                    22189.5000
322.700                    22372.6000
323.200                    22224.5000
323.700                    22157.0000
324.200                    22239.7000
324.700                    22088.0000
325.200                    22241.9000
325.700                    22058.9000
326.200                    22106.8000
326.700                    22062.9000
327.200                    22036.8000
327.700                    22143.0000
328.200                    22095.0000
328.700                    22006.3000
329.200                    22113.1000
329.700                    21883.7000
330.200                    21768.6000
330.700                    21735.2000
331.200                    21995.2000
331.700                    21955.1000
332.200                    21971.4000
332.700                    21763.1000
333.200                    21847.1000
333.700                    21681.3000
334.200                    21715.7000
334.700                    21755.3000
335.200                    21715.6000
335.700                    21990.1000
336.200                    21737.8000
336.700                    21697.1000
337.200                    21488.7000
337.700                    21660.4000
338.200                    21798.5000
338.700                    21477.3000
339.200                    21579.4000
339.700                    21526.4000
340.200                    21369.8000
340.700                    21628.7000
341.200                    21520.2000
341.700                    21572.2000
342.200                    21493.5000
342.700                    21437.7000
343.200                    21485.7000
343.700                    21385.9000
344.200                    21423.7000
344.700                    21326.8000
345.200                    21216.6000
345.700                    21370.2000
346.200                    21264.0000
346.700                    21251.0000
347.200                    21307.1000
347.700                    21257.7000
348.200                    21230.5000
348.700                    21392.9000
349.200                    21089.3000
349.700                    20924.0000
350.200                    20974.4000
350.700                    21190.7000
351.200                    21099.9000
351.700                    20810.3000
352.200                    21018.0000
352.700                    21041.8000
353.200                    21264.3000
353.700                    21186.2000
354.200                    21187.8000
354.700                    21152.1000
355.200                    21188.3000
355.700                    21060.8000
356.200                    21147.4000
356.700                    21188.3000
357.200                    21039.6000
357.700                    20897.4000
358.200                    20855.4000
358.700                    20855.7000
359.200                    20946.3000
359.700                    20965.7000
360.200                    20641.0000
360.700                    20655.0000
361.200                    20739.2000
361.700                    20543.4000
362.200                    20624.4000
362.700                    20631.5000
363.200                    20588.3000
363.700                    20647.5000
364.200                    20658.0000
364.700                    20523.5000
365.200                    20399.7000
365.700                    20530.4000
366.200                    20584.7000
366.700                    20655.2000
367.200                    20565.3000
367.700                    20352.0000
368.200                    20408.4000
368.700                    20511.6000
369.200                    20558.5000
369.700                    20509.0000
370.200                    20606.1000
370.700                    20520.6000
371.200                    20174.1000
371.700                    20156.2000
372.200                    20518.6000
372.700                    20236.1000
373.200                    20106.1000
373.700                    20297.9000
374.200                    20453.2000
374.700                    20546.9000
375.200                    20362.7000
375.700                    20330.2000
376.200                    20193.1000
376.700                    20396.2000
377.200                    20222.6000
377.700                    20209.3000
378.200                    20183.9000
378.700                    20255.8000
379.200                    20277.0000
379.700                    20174.8000
380.200                    20104.0000
380.700                    20223.0000
381.200                    20088.2000
381.700                    20206.7000
382.200                    20173.4000
382.700                    20101.7000
383.200                    20069.6000
383.700                    19857.7000
384.200                    19829.8000
384.700                    20070.2000
385.200                    20008.2000
385.700                    19944.8000
386.200                    20010.5000
386.700                    20081.0000
387.200                    19952.7000
387.700                    19878.0000
388.200                    20003.6000
388.700                    20118.0000
389.200                    20020.3000
389.700                    19844.5000
390.200                    20026.7000
390.700                    19929.1000
391.200                    20105.3000
391.700                    20009.7000
392.200                    20035.0000
392.700                    20073.1000
393.200                    19649.8000
393.700                    19588.2000
394.200                    19800.2000
394.700                    19952.3000
395.200                    19801.9000
395.700                    19790.1000
396.200                    19959.4000
396.700                    19947.2000
397.200                    19961.1000
397.700                    19813.3000
398.200                    19694.5000
398.700                    19624.9000
399.200                    19683.4000
399.700                    19648.6000
400.200                    19710.6000
400.700                    19350.3000
401.200                    19430.3000
401.700                    19707.2000
402.200                    19588.1000
402.700                    19360.7000
403.200                    19406.3000
403.700                    19397.4000
404.200                    19464.7000
404.700                    19324.5000
405.200                    19431.7000
405.700                    19482.5000
406.200                    19367.0000
406.700                    19562.8000
407.200                    19383.6000
407.700                    19228.5000
408.200                    19509.9000
408.700                    19438.4000
409.200                    19114.8000
409.700                    19057.3000
410.200                    19156.5000
410.700                    19235.4000
411.200                    18993.3000
411.700                    19265.6000
412.200                    19090.7000
412.700                    19071.0000
413.200                    19278.0000
413.700                    19210.8000
414.200                    19237.3000
414.700                    19513.0000
415.200                    19197.2000
415.700                    19364.7000
416.200                    19119.1000
416.700                    19244.1000
417.200                    19088.8000
417.700                    19317.6000
418.200                    19392.2000
418.700                    19109.4000
419.200                    18953.4000
419.700                    19006.2000
420.200                    19011.0000
420.700                    18672.9000
421.200                    18896.7000
421.700                    19247.5000
422.200                    19194.8000
422.700                    19012.5000
423.200                    19105.2000
423.700                    19123.9000
424.200                    19089.7000
424.700                    18993.7000
425.200                    18819.0000
425.700                    18798.2000
426.200                    18961.7000
426.700                    18892.8000
427.200                    19124.8000
427.700                    19026.6000
428.200                    19069.7000
428.700                    18951.9000
429.200                    18940.0000
429.700                    18984.1000
430.200                    18834.2000
430.700                    18656.1000
431.200                    18823.6000
431.700                    18733.4000
432.200                    18849.2000
432.700                    18795.2000
433.200                    18890.8000
433.700                    18905.2000
434.200                    19026.8000
434.700                    18852.2000
435.200                    18990.9000
435.700                    18981.1000
436.200                    18835.6000
436.700                    19109.7000
437.200                    19233.3000
437.700                    19266.2000
438.200                    19039.1000
438.700                    18937.6000
439.200                    19015.2000
439.700                    18933.6000
440.200                    18810.2000
440.700                    19073.5000
441.200                    19182.7000
441.700                    19067.6000
442.200                    18867.3000
442.700                    18905.7000
443.200                    18590.4000
443.700                    18677.4000
444.200                    18610.0000
444.700                    18592.7000
445.200                    18704.8000
445.700                    18588.5000
446.200                    18732.2000
446.700                    18650.1000
447.200                    18443.3000
447.700                    18422.3000
448.200                    18254.2000
448.700                    18159.6000
449.200                    18361.5000
449.700                    18546.7000
450.200                    18590.0000
450.700                    18487.9000
451.200                    18370.5000
451.700                    18465.8000
452.200                    18526.8000
452.700                    18420.4000
453.200                    18420.0000
453.700                    18353.1000
454.200                    18342.5000
454.700                    18328.4000
455.200                    18485.8000
455.700                    18350.1000
456.200                    18517.0000
456.700                    18317.0000
457.200                    18301.3000
457.700                    18520.6000
458.200                    18493.0000
458.700                    18288.7000
459.200                    18263.6000
459.700                    18233.6000
460.200                    18041.3000
460.700                    18191.0000
461.200                    18273.0000
461.700                    18389.0000
462.200                    18039.3000
462.700                    18057.6000
463.200                    18302.0000
463.700                    18191.7000
464.200                    18084.6000
464.700                    18121.7000
465.200                    18221.3000
465.700                    18197.6000
466.200                    18166.4000
466.700                    18022.0000
467.200                    18039.1000
467.700                    18072.4000
468.200                    18001.8000
468.700                    17980.3000
469.200                    18021.0000
469.700                    18173.8000
470.200                    18020.3000
470.700                    18002.0000
471.200                    17813.3000
471.700                    17995.5000
472.200                    18029.4000
472.700                    18091.3000
473.200                    17877.1000
473.700                    17748.1000
474.200                    18135.3000
474.700                    18251.5000
475.200                    17854.9000
475.700                    17971.4000
476.200                    18034.3000
476.700                    17805.7000
477.200                    18016.7000
477.700                    17741.6000
478.200                    17802.5000
478.700                    17604.0000
479.200                    17915.0000
479.700                    17798.8000
480.200                    17718.0000
480.700                    17787.1000
481.200                    17593.7000
481.700                    17732.0000
482.200                    17819.9000
482.700                    17777.9000
483.200                    18020.5000
483.700                    17805.1000
484.200                    18055.4000
484.700                    17833.2000
485.200                    17768.9000
485.700                    17981.1000
486.200                    17884.5000
486.700                    17819.5000
487.200                    17871.9000
487.700                    17720.9000
488.200                    17565.9000
488.700                    17484.3000
489.200                    17542.5000
489.700                    17723.6000
490.200                    17654.4000
490.700                    17442.4000
491.200                    17413.4000
491.700                    17414.1000
492.200                    17532.3000
492.700                    17362.3000
493.200                    17228.5000
493.700                    17448.5000
494.200                    17502.8000
494.700                    17274.8000
495.200                    17285.6000
495.700                    17246.5000
496.200                    17246.6000
496.700                    17407.6000
497.200                    17255.8000
497.700                    17156.2000
498.200                    17351.8000
498.700                    17294.0000
499.200                    17325.8000
499.700                    17314.9000
500.200                    17323.2000
500.700                    17170.4000
501.200                    17415.0000
501.700                    17191.4000
502.200                    17328.9000
502.700                    17565.0000
503.200                    17333.7000
503.700                    17438.1000
504.200                    17698.0000
504.700                    17669.6000
505.200                    17643.6000
505.700                    17635.2000
506.200                    17692.2000
506.700                    17814.0000
507.200                    17634.9000
507.700                    17633.8000
508.200                    17708.1000
508.700                    17538.6000
509.200                    17414.2000
509.700                    17313.1000
510.200                    17418.2000
510.700                    17328.9000
511.200                    17216.7000
511.700                    17116.6000
512.200                    17002.3000
512.700                    16996.4000
513.200                    16985.1000
513.700                    16961.9000
514.200                    16737.7000
514.700                    17115.0000
515.200                    16673.2000
515.700                    16944.8000
516.200                    16836.3000
516.700                    16670.8000
517.200                    16452.2000
517.700                    16575.1000
518.200                    16701.1000
518.700                    16508.3000
519.200                    16557.6000
519.700                    16600.7000
520.200                    16552.9000
520.700                    16636.0000
521.200                    16531.3000
521.700                    16586.4000
522.200                    16479.3000
522.700                    16264.8000
523.200                    16516.3000
523.700                    16419.2000
524.200                    16416.1000
524.700                    16237.6000
525.200                    16520.2000
525.700                    16380.0000
526.200                    16219.9000
526.700                    16305.2000
527.200                    16324.9000
527.700                    16165.1000
528.200                    16157.2000
528.700                    16106.8000
529.200                    16112.5000
529.700                    16225.5000
530.200                    16349.0000
530.700                    16327.4000
531.200                    16080.8000
531.700                    16290.9000
532.200                    16263.5000
532.700                    16001.6000
533.200                    16226.1000
533.700                    16289.7000
534.200                    16026.0000
534.700                    16161.3000
535.200                    16044.7000
535.700                    16068.8000
536.200                    16301.7000
536.700                    16141.8000
537.200                    15976.8000
537.700                    16148.5000
538.200                    16092.3000
538.700                    16086.3000
539.200                    16110.3000
539.700                    16039.8000
540.200                    16013.3000
540.700                    16124.3000
541.200                    16238.5000
541.700                    15848.9000
542.200                    15822.3000
542.700                    16137.1000
543.200                    16140.5000
543.700                    16014.9000
544.200                    16126.4000
544.700                    15735.9000
545.200                    15781.0000
545.700                    15882.5000
546.200                    15966.5000
546.700                    15974.0000
547.200                    15978.8000
547.700                    16133.4000
548.200                    16091.3000
548.700                    15854.6000
549.200                    15827.7000
549.700                    15903.4000
550.200                    15931.1000
550.700                    15935.7000
551.200                    15933.4000
551.700                    15991.7000
552.200                    15813.9000
552.700                    16077.2000
553.200                    15931.4000
553.700                    15993.2000
554.200                    16030.4000
554.700                    15786.4000
555.200                    16123.8000
555.700                    15819.7000
556.200                    15735.0000
556.700                    15831.3000
557.200                    15857.3000
557.700                    15615.0000
558.200                    15736.0000
558.700                    15709.1000
559.200                    15464.9000
559.700                    15605.2000
560.200                    15831.8000
560.700                    15506.9000
561.200                    15444.2000
561.700                    15570.2000
562.200                    15542.7000
562.700                    15704.7000
563.200                    15590.2000
563.700                    15653.2000
564.200                    15719.8000
564.700                    15656.7000
565.200                    15558.4000
565.700                    15596.1000
566.200                    15457.6000
566.700                    15655.1000
567.200                    15496.3000
567.700                    15275.5000
568.200                    15539.5000
568.700                    15651.0000
569.200                    15648.3000
569.700                    15605.1000
570.200                    15548.4000
570.700                    15535.4000
571.200                    15672.0000
571.700                    15663.1000
572.200                    15417.0000
572.700                    15414.4000
573.200                    15370.7000
573.700                    15323.5000
574.200                    15298.2000
574.700                    15480.5000
575.200                    15538.5000
575.700                    15401.5000
576.200                    15395.8000
576.700                    15373.9000
577.200                    15482.4000
577.700                    15301.5000
578.200                    15374.8000
578.700                    15340.1000
579.200                    15241.3000
579.700                    15371.1000
580.200                    15304.2000
580.700                    15615.2000
581.200                    15471.0000
581.700                    15337.0000
582.200                    15268.5000
582.700                    15273.4000
583.200                    15271.1000
583.700                    15176.6000
584.200                    15300.5000
584.700                    15131.1000
585.200                    15188.0000
585.700                    15244.3000
586.200                    15300.8000
586.700                    15138.0000
587.200                    15056.9000
587.700                    15115.9000
588.200                    15308.4000
588.700                    15307.8000
589.200                    15113.7000
589.700                    14975.6000
590.200                    15154.4000
590.700                    15008.6000
591.200                    15184.9000
591.700                    14965.1000
592.200                    15099.3000
592.700                    15062.5000
593.200                    15058.7000
593.700                    14870.3000
594.200                    14952.7000
594.700                    15102.8000
595.200                    15085.7000
595.700                    15149.4000
596.200                    15111.6000
596.700                    15181.5000
597.200                    15044.2000
597.700                    14988.1000
598.200                    15146.1000
598.700                    14997.6000
599.200                    15109.0000
599.700                    15011.8000
600.200                    14971.6000
600.700                    15025.3000
601.200                    15174.3000
601.700                    14973.7000
602.200                    15270.5000
602.700                    15296.3000
603.200                    15115.1000
603.700                    15162.0000
604.200                    15241.6000
604.700                    15156.6000
605.200                    14988.0000
605.700                    15103.2000
606.200                    15200.3000
606.700                    14865.4000
607.200                    14963.7000
607.700                    14777.7000
608.200                    14857.8000
608.700                    14939.0000
609.200                    15017.6000
609.700                    15135.3000
610.200                    14939.4000
610.700                    14924.0000
611.200                    15047.3000
611.700                    14833.9000
612.200                    15006.8000
612.700                    14947.4000
613.200                    14960.4000
613.700                    14887.3000
614.200                    14941.6000
614.700                    14831.7000
615.200                    15015.8000
615.700                    14898.7000
616.200                    14936.9000
616.700                    14891.5000
617.200                    14705.5000
617.700                    14803.7000
618.200                    14849.1000
618.700                    14688.5000
619.200                    14938.0000
619.700                    14756.3000
620.200                    15009.3000
620.700                    14785.4000
621.200                    14805.3000
621.700                    14786.2000
622.200                    14605.1000
622.700                    14838.8000
623.200                    14710.3000
623.700                    14672.8000
624.200                    14614.7000
624.700                    14705.0000
625.200                    14605.7000
625.700                    14742.8000
626.200                    14791.6000
626.700                    14683.8000
627.200                    14649.4000
627.700                    14901.0000
628.200                    14881.2000
628.700                    14741.0000
629.200                    14837.7000
629.700                    14900.2000
630.200                    14774.4000
630.700                    14962.3000
631.200                    14683.9000
631.700                    14690.8000
632.200                    14702.1000
632.700                    14867.2000
633.200                    14837.5000
633.700                    14656.4000
634.200                    14696.6000
634.700                    14611.1000
635.200                    14508.1000
635.700                    14564.7000
636.200                    14583.5000
636.700                    14578.0000
637.200                    14961.2000
637.700                    14703.0000
638.200                    14691.8000
638.700                    14574.5000
639.200                    14544.0000
639.700                    14471.8000
640.200                    14614.7000
640.700                    14728.1000
641.200                    14683.3000
641.700                    14845.3000
642.200                    14773.0000
642.700                    14576.6000
643.200                    14642.2000
643.700                    14581.6000
644.200                    14527.7000
644.700                    14396.7000
645.200                    14698.0000
645.700                    14706.0000
646.200                    14538.9000
646.700                    14429.8000
647.200                    14681.0000
647.700                    14790.1000
648.200                    14632.7000
648.700                    14527.3000
649.200                    14624.4000
649.700                    14519.5000
650.200                    14615.7000
650.700                    14636.3000
651.200                    14572.7000
651.700                    14726.8000
652.200                    14580.6000
652.700                    14462.7000
653.200                    14719.4000
653.700                    14529.7000
654.200                    14524.4000
654.700                    14567.7000
655.200                    14606.4000
655.700                    14394.4000
656.200                    14386.3000
656.700                    14622.9000
657.200                    14696.4000
657.700                    14593.4000
658.200                    14415.8000
658.700                    14408.7000
659.200                    14645.6000
659.700                    14534.8000
660.200                    14546.2000
660.700                    14625.3000
661.200                    14463.4000
661.700                    14542.0000
662.200                    14361.1000
662.700                    14346.8000
663.200                    14378.2000
663.700                    14378.9000
664.200                    14386.0000
664.700                    14269.1000
665.200                    14580.8000
665.700                    14372.3000
666.200                    14407.3000
666.700                    14382.2000
667.200                    14555.1000
667.700                    14491.9000
668.200                    14443.4000
668.700                    14418.2000
669.200                    14306.8000
669.700                    14491.1000
670.200                    14615.8000
670.700                    14421.4000
671.200                    14390.8000
671.700                    14254.9000
672.200                    14399.0000
672.700                    14570.0000
673.200                    14565.5000
673.700                    14505.5000
674.200                    14483.7000
674.700                    14681.3000
675.200                    14669.2000
675.700                    14728.2000
676.200                    14620.1000
676.700                    14469.9000
677.200                    14394.3000
677.700                    14272.7000
678.200                    14448.7000
678.700                    14556.1000
679.200                    14385.5000
679.700                    14463.3000
680.200                    14588.9000
680.700                    14397.5000
681.200                    14535.7000
681.700                    14645.4000
682.200                    14439.1000
682.700                    14276.2000
683.200                    14351.4000
683.700                    14499.4000
684.200                    14407.9000
684.700                    14484.8000
685.200                    14440.8000
685.700                    14530.4000
686.200                    14449.5000
686.700                    14398.0000
687.200                    14396.0000
687.700                    14468.0000
688.200                    14538.4000
688.700                    14497.7000
689.200                    14459.4000
689.700                    14256.4000
690.200                    14385.2000
690.700                    14502.4000
691.200                    14398.4000
691.700                    14154.7000
692.200                    14303.1000
692.700                    14443.0000
693.200                    14584.1000
693.700                    14256.5000
694.200                    14513.3000
694.700                    14434.7000
695.200                    14324.3000
695.700                    14226.1000
696.200                    14378.9000
696.700                    14425.3000
697.200                    14423.9000
697.700                    14399.9000
698.200                    14410.4000
698.700                    14538.0000
699.200                    14413.5000
699.700                    14480.8000
700.200                    14223.3000
700.700                    14505.6000
701.200                    14574.1000
701.700                    14434.8000
702.200                    14408.4000
702.700                    14658.5000
703.200                    14281.6000
703.700                    14515.4000
704.200                    14573.6000
704.700                    14419.6000
705.200                    14510.4000
705.700                    14342.0000
706.200                    14504.1000
706.700                    14428.2000
707.200                    14343.8000
707.700                    14485.2000
708.200                    14401.1000
708.700                    14329.3000
709.200                    14338.5000
709.700                    14294.4000
710.200                    14421.8000
710.700                    14628.6000
711.200                    14222.0000
711.700                    14377.1000
712.200                    14299.0000
712.700                    14558.3000
713.200                    14400.8000
713.700                    14139.2000
714.200                    14384.7000
714.700                    14291.1000
715.200                    14384.1000
715.700                    14161.8000
716.200                    14305.7000
716.700                    14230.0000
717.200                    14293.7000
717.700                    14315.7000
718.200                    14419.7000
718.700                    14318.1000
719.200                    14348.1000
719.700                    14439.1000
720.200                    14619.2000
720.700                    14686.3000
721.200                    14561.6000
721.700                    14539.2000
722.200                    14465.2000
722.700                    14628.3000
723.200                    14469.6000
723.700                    14645.9000
724.200                    14511.1000
724.700                    14748.1000
725.200                    14536.4000
725.700                    14565.8000
726.200                    14513.7000
726.700                    14263.4000
727.200                    14300.4000
727.700                    14424.7000
728.200                    14224.9000
728.700                    14202.6000
729.200                    14089.4000
729.700                    14096.6000
730.200                    13741.4000
730.700                    13986.2000
731.200                    13878.5000
731.700                    13980.4000
732.200                    13907.9000
732.700                    13858.5000
733.200                    13973.2000
733.700                    13875.6000
734.200                    13799.7000
734.700                    13805.0000
735.200                    13703.7000
735.700                    13826.3000
736.200                    13789.9000
736.700                    13668.1000
737.200                    13757.0000
737.700                    13767.0000
738.200                    13833.7000
738.700                    13824.1000
739.200                    13690.2000
739.700                    13679.9000
740.200                    13785.9000
740.700                    13593.4000
741.200                    13501.1000
741.700                    13555.6000
742.200                    13601.8000
742.700                    13613.6000
743.200                    13642.2000
743.700                    13545.3000
744.200                    13453.5000
744.700                    13555.0000
745.200                    13230.6000
745.700                    13537.9000
746.200                    13604.5000
746.700                    13478.2000
747.200                    13433.3000
747.700                    13387.8000
748.200                    13560.4000
748.700                    13641.6000
749.200                    13506.0000
749.700                    13498.3000
750.200                    13323.2000
750.700                    13371.1000
751.200                    13443.9000
751.700                    13400.9000
752.200                    13480.6000
752.700                    13396.1000
753.200                    13467.0000
753.700                    13470.4000
754.200                    13612.5000
754.700                    13679.9000
755.200                    13421.2000
755.700                    13442.5000
756.200                    13250.4000
756.700                    13336.7000
757.200                    13491.0000
757.700                    13450.6000
758.200                    13454.8000
758.700                    13463.6000
759.200                    13564.7000
759.700                    13371.8000
760.200                    13192.4000
760.700                    13339.9000
761.200                    13483.6000
761.700                    13472.8000
762.200                    13406.4000
762.700                    13439.6000
763.200                    13346.1000
763.700                    13279.7000
764.200                    13362.2000
764.700                    13553.0000
765.200                    13392.2000
765.700                    13515.3000
766.200                    13257.1000
766.700                    13431.4000
767.200                    13416.0000
767.700                    13364.8000
768.200                    13365.0000
768.700                    13217.0000
769.200                    13286.2000
769.700                    13199.0000
770.200                    13435.6000
770.700                    13571.4000
771.200                    13374.9000
771.700                    13492.4000
772.200                    13672.1000
772.700                    13539.1000
773.200                    13442.4000
773.700                    13616.3000
774.200                    13495.7000
774.700                    13300.5000
775.200                    13468.0000
775.700                    13376.5000
776.200                    13485.7000
776.700                    13529.9000
777.200                    13338.1000
777.700                    13366.7000
778.200                    13184.1000
778.700                    13519.1000
779.200                    13451.7000
779.700                    13341.8000
780.200                    13365.5000
780.700                    13587.9000
781.200                    13506.9000
781.700                    13363.8000
782.200                    13337.4000
782.700                    13510.7000
783.200                    13441.2000
783.700                    13452.0000
784.200                    13401.9000
784.700                    13396.4000
785.200                    13366.8000
785.700                    13319.1000
786.200                    13234.0000
786.700                    13529.5000
787.200                    13416.1000
787.700                    13350.4000
788.200                    13302.5000
788.700                    13332.5000
789.200                    13368.6000
789.700                    13286.5000
790.200                    13323.0000
790.700                    13359.6000
791.200                    13415.7000
791.700                    13208.3000
792.200                    13226.1000
792.700                    13347.6000
793.200                    13495.5000
793.700                    13429.6000
794.200                    13371.1000
794.700                    13493.3000
795.200                    13217.2000
795.700                    13288.1000
796.200                    13137.6000
796.700                    13483.7000
797.200                    13535.7000
797.700                    13341.1000
798.200                    13380.1000
798.700                    13362.2000
799.200                    13432.2000
799.700                    13325.2000
800.200                    13429.2000
800.700                    13413.2000
801.200                    13328.3000
801.700                    13375.6000
802.200                    13204.8000
802.700                    13366.5000
803.200                    13472.1000
803.700                    13350.8000
804.200                    13352.2000
804.700                    13401.7000
805.200                    13488.3000
805.700                    13461.1000
806.200                    13416.8000
806.700                    13380.8000
807.200                    13130.7000
807.700                    13349.8000
808.200                    13519.6000
808.700                    13570.8000
809.200                    13471.3000
809.700                    13547.7000
810.200                    13523.0000
810.700                    13380.7000
811.200                    13282.0000
811.700                    13325.6000
812.200                    13408.9000
812.700                    13437.1000
813.200                    13323.3000
813.700                    13404.3000
814.200                    13295.8000
814.700                    13467.1000
815.200                    13443.7000
815.700                    13494.4000
816.200                    13567.2000
816.700                    13426.6000
817.200                    13675.4000
817.700                    13462.8000
818.200                    13538.1000
818.700                    13451.9000
819.200                    13380.0000
819.700                    13587.6000
820.200                    13586.7000
820.700                    13523.2000
821.200                    13432.0000
821.700                    13542.1000
822.200                    13729.4000
822.700                    13741.3000
823.200                    13593.9000
823.700                    13580.0000
824.200                    13454.0000
824.700                    13691.5000
825.200                    13583.4000
825.700                    13480.7000
826.200                    13339.3000
826.700                    13301.7000
827.200                    13505.1000
827.700                    13443.2000
828.200                    13498.0000
828.700                    13503.7000
829.200                    13439.4000
829.700                    13581.4000
830.200                    13509.5000
830.700                    13509.7000
831.200                    13592.8000
831.700                    13561.3000
832.200                    13542.0000
832.700                    13325.1000
833.200                    13546.5000
833.700                    13491.6000
834.200                    13538.7000
834.700                    13476.4000
835.200                    13651.6000
835.700                    13564.1000
836.200                    13372.8000
836.700                    13623.7000
837.200                    13737.1000
837.700                    13597.2000
838.200                    13677.1000
838.700                    13812.8000
839.200                    13703.2000
839.700                    13882.5000
840.200                    13944.8000
840.700                    14040.1000
841.200                    14050.3000
841.700                    14360.2000
842.200                    14076.3000
842.700                    14393.7000
843.200                    14643.2000
843.700                    14586.1000
844.200                    14343.9000
844.700                    14233.4000
845.200                    14203.0000
845.700                    14155.4000
846.200                    13944.5000
846.700                    13984.6000
847.200                    13785.6000
847.700                    13664.0000
848.200                    13573.3000
848.700                    13493.7000
849.200                    13460.5000
849.700                    13334.1000
850.200                    13486.2000
850.700                    13354.0000
851.200                    13470.3000
851.700                    13332.3000
852.200                    13148.5000
852.700                    13072.8000
853.200                    13172.0000
853.700                    13160.6000
854.200                    13274.0000
854.700                    13302.8000
855.200                    13192.6000
855.700                    13364.4000
856.200                    13306.2000
856.700                    13125.1000
857.200                    13070.1000
857.700                    13133.7000
858.200                    13070.2000
858.700                    13073.0000
859.200                    12989.6000
859.700                    12965.4000
860.200                    13111.2000
860.700                    12991.1000
861.200                    12997.4000
861.700                    12947.1000
862.200                    13188.5000
862.700                    13025.0000
863.200                    13142.3000
863.700                    13101.7000
864.200                    13141.6000
864.700                    13005.0000
865.200                    13030.6000
865.700                    12854.5000
866.200                    13005.7000
866.700                    12914.2000
867.200                    12991.5000
867.700                    13068.7000
868.200                    13051.5000
868.700                    13219.2000
869.200                    13168.3000
869.700                    13055.1000
870.200                    12872.6000
870.700                    12917.0000
871.200                    13082.8000
871.700                    13086.8000
872.200                    13115.5000
872.700                    13061.3000
873.200                    13229.2000
873.700                    13060.6000
874.200                    13082.8000
874.700                    13096.7000
875.200                    12933.5000
875.700                    12822.1000
876.200                    13018.0000
876.700                    13221.0000
877.200                    13204.7000
877.700                    13041.8000
878.200                    13152.7000
878.700                    13052.8000
879.200                    13127.3000
879.700                    13001.8000
880.200                    13204.1000
880.700                    13267.1000
881.200                    13106.1000
881.700                    12944.6000
882.200                    13093.1000
882.700                    13190.6000
883.200                    12982.1000
883.700                    12984.2000
884.200                    13250.6000
884.700                    13026.5000
885.200                    13070.4000
885.700                    13217.3000
886.200                    13234.7000
886.700                    13116.7000
887.200                    13211.4000
887.700                    13098.9000
888.200                    13056.9000
888.700                    13094.4000
889.200                    13169.6000
889.700                    12984.1000
890.200                    13057.8000
890.700                    13111.4000
891.200                    13094.0000
891.700                    13012.1000
892.200                    13089.5000
892.700                    13206.2000
893.200                    13222.6000
893.700                    13184.2000
894.200                    13145.6000
894.700                    13205.2000
895.200                    13373.9000
895.700                    13162.9000
896.200                    13463.4000
896.700                    13279.3000
897.200                    13222.4000
897.700                    13563.3000
898.200                    13534.5000
898.700                    13449.0000
899.200                    13452.0000
899.700                    13541.3000
900.200                    13525.7000
900.700                    13540.5000
901.200                    13608.1000
901.700                    13284.6000
902.200                    13490.8000
902.700                    13460.0000
903.200                    13364.0000
903.700                    13303.3000
904.200                    13380.8000
904.700                    13433.7000
905.200                    13318.4000
905.700                    13328.2000
906.200                    13404.6000
906.700                    13348.0000
907.200                    13322.7000
907.700                    13402.9000
908.200                    13449.0000
908.700                    13272.3000
909.200                    13393.5000
909.700                    13359.8000
910.200                    13459.9000
910.700                    13466.0000
911.200                    13495.5000
911.700                    13380.9000
912.200                    13319.4000
912.700                    13390.9000
913.200                    13290.6000
913.700                    13663.9000
914.200                    13536.5000
914.700                    13524.0000
915.200                    13533.2000
915.700                    13543.3000
916.200                    13591.5000
916.700                    13601.5000
917.200                    13723.7000
917.700                    13685.4000
918.200                    13587.9000
918.700                    13770.4000
919.200                    13638.6000
919.700                    13604.9000
920.200                    13614.5000
920.700                    13511.8000
921.200                    13313.6000
921.700                    13335.6000
922.200                    13407.7000
922.700                    13137.1000
923.200                    13330.1000
923.700                    13217.4000
924.200                    13373.8000
924.700                    13293.1000
925.200                    13171.1000
925.700                    13277.6000
926.200                    13279.3000
926.700                    12999.1000
927.200                    13359.2000
927.700                    13082.2000
928.200                    13192.6000
928.700                    13093.1000
929.200                    13123.5000
929.700                    13120.4000
930.200                    13193.7000
930.700                    13057.4000
931.200                    13076.9000
931.700                    13346.0000
932.200                    13357.4000
932.700                    13173.4000
933.200                    13377.7000
933.700                    13241.2000
934.200                    13362.2000
934.700                    13478.9000
935.200                    13801.3000
935.700                    13892.1000
936.200                    14325.5000
936.700                    14795.6000
937.200                    15169.1000
937.700                    15613.5000
938.200                    15943.4000
938.700                    16603.9000
939.200                    16739.9000
939.700                    16816.4000
940.200                    16583.1000
940.700                    16264.4000
941.200                    15766.2000
941.700                    15241.5000
942.200                    14676.4000
942.700                    14230.5000
943.200                    13710.2000
943.700                    13237.8000
944.200                    12893.0000
944.700                    12787.8000
945.200                    12679.0000
945.700                    12448.2000
946.200                    12416.0000
946.700                    12205.9000
947.200                    12151.9000
947.700                    12124.0000
948.200                    12092.9000
948.700                    12047.9000
949.200                    11928.2000
949.700                    12055.5000
950.200                    12235.2000
950.700                    12010.3000
951.200                    11994.9000
951.700                    12335.4000
952.200                    12545.9000
952.700                    12744.3000
953.200                    13184.3000
953.700                    13199.4000
954.200                    13034.0000
954.700                    12655.9000
955.200                    12296.8000
955.700                    11791.4000
956.200                    11648.2000
956.700                    11569.1000
957.200                    11271.7000
957.700                    11343.9000
958.200                    11174.9000
958.700                    11092.2000
959.200                    11172.8000
959.700                    11224.7000
960.200                    11033.0000
960.700                    11254.5000
961.200                    11095.5000
961.700                    11018.1000
962.200                    11033.7000
962.700                    11171.6000
963.200                    11242.7000
963.700                    11040.6000
964.200                    11095.3000
964.700                    11184.3000
965.200                    11263.3000
965.700                    11198.7000
966.200                    11108.8000
966.700                    11069.6000
967.200                    11080.1000
967.700                    10919.2000
968.200                    10975.9000
968.700                    11186.3000
969.200                    11120.7000
969.700                    11106.4000
970.200                    11109.2000
970.700                    11060.1000
971.200                    10928.4000
971.700                    11146.6000
972.200                    10997.7000
972.700                    11125.0000
973.200                    10793.3000
973.700                    10974.4000
974.200                    11078.5000
974.700                    10979.2000
975.200                    11111.2000
975.700                    10886.9000
976.200                    10910.6000
976.700                    11116.4000
977.200                    11043.2000
977.700                    11078.5000
978.200                    11064.9000
978.700                    11226.4000
979.200                    11091.0000
979.700                    11069.8000
980.200                    11071.3000
980.700                    10933.2000
981.200                    10817.6000
981.700                    10972.3000
982.200                    11049.8000
982.700                    11072.7000
983.200                    11088.4000
983.700                    11093.1000
984.200                    11070.8000
984.700                    11019.2000
985.200                    10984.4000
985.700                    11025.7000
986.200                    10993.0000
986.700                    11059.6000
987.200                    11151.8000
987.700                    11147.4000
988.200                    11174.2000
988.700                    11007.3000
989.200                    11245.4000
989.700                    11046.4000
990.200                    11026.3000
990.700                    11049.2000
991.200                    10978.5000
991.700                    11105.3000
992.200                    11212.1000
992.700                    11047.7000
993.200                    11119.7000
993.700                    11177.2000
994.200                    11254.4000
994.700                    11170.9000
995.200                    11089.6000
995.700                    11164.9000
996.200                    11145.6000
996.700                    11243.4000
997.200                    11132.6000
997.700                    10988.6000
998.200                    11141.1000
998.700                    11020.2000
999.200                    11160.7000
999.700                    11258.1000
1000.200                   11295.5000
1000.700                   11227.7000
1001.200                   11199.4000
1001.700                   11197.4000
1002.200                   11293.7000
1002.700                   11134.2000
1003.200                   11113.2000
1003.700                   11188.0000
1004.200                   11171.9000
1004.700                   11233.7000
1005.200                   11087.4000
1005.700                   11162.9000
1006.200                   11124.9000
1006.700                   11159.4000
1007.200                   11146.7000
1007.700                   11131.7000
1008.200                   11220.7000
1008.700                   11239.1000
1009.200                   11382.7000
1009.700                   11225.4000
1010.200                   11265.7000
1010.700                   11282.4000
1011.200                   11241.6000
1011.700                   11180.0000
1012.200                   11362.4000
1012.700                   11318.6000
1013.200                   11260.2000
1013.700                   11407.0000
1014.200                   11138.4000
1014.700                   11259.2000
1015.200                   11314.5000
1015.700                   11210.9000
1016.200                   11356.9000
1016.700                   11320.0000
1017.200                   11243.5000
1017.700                   11273.7000
1018.200                   11337.1000
1018.700                   11189.6000
1019.200                   11193.6000
1019.700                   11183.4000
1020.200                   11228.1000
1020.700                   11420.5000
1021.200                   11234.2000
1021.700                   11415.2000
1022.200                   11385.0000
1022.700                   11434.1000
1023.200                   11198.8000
1023.700                   11423.5000
1024.200                   11369.0000
1024.700                   11298.3000
1025.200                   11356.6000
1025.700                   11266.0000
1026.200                   11343.4000
1026.700                   11467.0000
1027.200                   11444.0000
1027.700                   11461.3000
1028.200                   11404.2000
1028.700                   11303.7000
1029.200                   11554.3000
1029.700                   11429.4000
1030.200                   11547.8000
1030.700                   11371.7000
1031.200                   11506.5000
1031.700                   11430.6000
1032.200                   11443.0000
1032.700                   11450.9000
1033.200                   11450.6000
1033.700                   11503.5000
1034.200                   11498.7000
1034.700                   11474.6000
1035.200                   11489.8000
1035.700                   11505.0000
1036.200                   11654.8000
1036.700                   11426.3000
1037.200                   11581.0000
1037.700                   11590.4000
1038.200                   11391.0000
1038.700                   11383.4000
1039.200                   11543.0000
1039.700                   11733.8000
1040.200                   11463.0000
1040.700                   11481.7000
1041.200                   11655.5000
1041.700                   11586.3000
1042.200                   11767.8000
1042.700                   11626.2000
1043.200                   11556.4000
1043.700                   11693.7000
1044.200                   11507.7000
1044.700                   11575.4000
1045.200                   11509.5000
1045.700                   11678.3000
1046.200                   11545.4000
1046.700                   11554.8000
1047.200                   11852.5000
1047.700                   11950.2000
1048.200                   11775.3000
1048.700                   11717.6000
1049.200                   11729.3000
1049.700                   11937.0000
1050.200                   11699.9000
1050.700                   11738.1000
1051.200                   11685.3000
1051.700                   11665.9000
1052.200                   11832.2000
1052.700                   11841.8000
1053.200                   11731.0000
1053.700                   11746.3000
1054.200                   11935.3000
1054.700                   11753.6000
1055.200                   11793.4000
1055.700                   11806.8000
1056.200                   11810.3000
1056.700                   11956.6000
1057.200                   11721.3000
1057.700                   11685.6000
1058.200                   11836.4000
1058.700                   11914.3000
1059.200                   11752.5000
1059.700                   11825.9000
1060.200                   11998.1000
1060.700                   12005.3000
1061.200                   11867.2000
1061.700                   11977.2000
1062.200                   11781.5000
1062.700                   11847.6000
1063.200                   12037.9000
1063.700                   12095.6000
1064.200                   12036.1000
1064.700                   12233.2000
1065.200                   12009.9000
1065.700                   11896.3000
1066.200                   12119.1000
1066.700                   11985.4000
1067.200                   12102.8000
1067.700                   11968.5000
1068.200                   11968.6000
1068.700                   12131.7000
1069.200                   12095.8000
1069.700                   12205.6000
1070.200                   12274.2000
1070.700                   12180.8000
1071.200                   12194.1000
1071.700                   12317.4000
1072.200                   12314.5000
1072.700                   12160.3000
1073.200                   12190.4000
1073.700                   12101.3000
1074.200                   12217.5000
1074.700                   12304.4000
1075.200                   12141.1000
1075.700                   12217.8000
1076.200                   12160.4000
1076.700                   12332.8000
1077.200                   12226.2000
1077.700                   12450.7000
1078.200                   12310.1000
1078.700                   12319.3000
1079.200                   12346.7000
1079.700                   12420.2000
1080.200                   12476.1000
1080.700                   12361.4000
1081.200                   12447.4000
1081.700                   12331.5000
1082.200                   12425.5000
1082.700                   12584.5000
1083.200                   12551.2000
1083.700                   12605.0000
1084.200                   12510.3000
1084.700                   12662.3000
1085.200                   12522.7000
1085.700                   12551.8000
1086.200                   12653.6000
1086.700                   12750.6000
1087.200                   12601.9000
1087.700                   12602.5000
1088.200                   12614.3000
1088.700                   12711.2000
1089.200                   12689.4000
1089.700                   12830.4000
1090.200                   12755.2000
1090.700                   12763.1000
1091.200                   12747.8000
1091.700                   12648.6000
1092.200                   12729.2000
1092.700                   12506.7000
1093.200                   12763.3000
1093.700                   12795.6000
1094.200                   12628.0000
1094.700                   12529.2000
1095.200                   12696.6000
1095.700                   12715.6000
1096.200                   12756.1000
1096.700                   12801.2000
1097.200                   12759.6000
1097.700                   12984.2000
1098.200                   12980.5000
1098.700                   13196.0000
1099.200                   12908.8000
1099.700                   13097.5000
1100.200                   13056.0000
1100.700                   13197.0000
1101.200                   13145.9000
1101.700                   13031.3000
1102.200                   13066.6000
1102.700                   13149.3000
1103.200                   13170.9000
1103.700                   13389.8000
1104.200                   13324.5000
1104.700                   13357.9000
1105.200                   13287.1000
1105.700                   13256.3000
1106.200                   13342.2000
1106.700                   13481.4000
1107.200                   13469.8000
1107.700                   13532.9000
1108.200                   13578.7000
1108.700                   13343.3000
1109.200                   13555.2000
1109.700                   13381.0000
1110.200                   13347.4000
1110.700                   13347.2000
1111.200                   13377.3000
1111.700                   13527.2000
1112.200                   13552.0000
1112.700                   13694.9000
1113.200                   13430.0000
1113.700                   13549.7000
1114.200                   13404.8000
1114.700                   13595.7000
1115.200                   13617.8000
1115.700                   13549.2000
1116.200                   13693.2000
1116.700                   13578.7000
1117.200                   13461.3000
1117.700                   13689.4000
1118.200                   13626.2000
1118.700                   13790.4000
1119.200                   13528.0000
1119.700                   13665.8000
1120.200                   13615.1000
1120.700                   13658.6000
1121.200                   13679.9000
1121.700                   13509.9000
1122.200                   13542.3000
1122.700                   13511.5000
1123.200                   13635.2000
1123.700                   13547.7000
1124.200                   13619.1000
1124.700                   13749.3000
1125.200                   13670.7000
1125.700                   13843.6000
1126.200                   13802.9000
1126.700                   13932.1000
1127.200                   14250.7000
1127.700                   14460.5000
1128.200                   14680.4000
1128.700                   14994.0000
1129.200                   15366.4000
1129.700                   15823.0000
1130.200                   16618.1000
1130.700                   17278.7000
1131.200                   18023.5000
1131.700                   19006.0000
1132.200                   19499.0000
1132.700                   20086.9000
1133.200                   19934.9000
1133.700                   19339.9000
1134.200                   18499.1000
1134.700                   17480.8000
1135.200                   16446.9000
1135.700                   15582.1000
1136.200                   14686.4000
1136.700                   13977.3000
1137.200                   13487.1000
1137.700                   13158.5000
1138.200                   12881.0000
1138.700                   12702.9000
1139.200                   12274.8000
1139.700                   11986.0000
1140.200                   11992.6000
1140.700                   11984.2000
1141.200                   12104.6000
1141.700                   11998.1000
1142.200                   11907.4000
1142.700                   11827.3000
1143.200                   11882.9000
1143.700                   11955.5000
1144.200                   11953.2000
1144.700                   12042.3000
1145.200                   12047.2000
1145.700                   12269.6000
1146.200                   12605.7000
1146.700                   13199.6000
1147.200                   13540.1000
1147.700                   14257.2000
1148.200                   15101.5000
1148.700                   16615.7000
1149.200                   17927.0000
1149.700                   19383.4000
1150.200                   20420.9000
1150.700                   21173.9000
1151.200                   20949.7000
1151.700                   20062.2000
1152.200                   18840.5000
1152.700                   16793.4000
1153.200                   15155.0000
1153.700                   13662.6000
1154.200                   12173.8000
1154.700                   11425.2000
1155.200                   10719.1000
1155.700                   10177.3000
1156.200                    9592.7000
1156.700                    9306.9000
1157.200                    9145.4000
1157.700                    8819.6000
1158.200                    8668.0000
1158.700                    8659.8000
1159.200                    8624.1000
1159.700                    8564.8000
1160.200                    8529.5000
1160.700                    8559.3000
1161.200                    8394.7000
1161.700                    8544.1000
1162.200                    8455.3000
1162.700                    7969.9000
1163.200                    7963.3000
1163.700                    7981.4000
1164.200                    7935.9000
1164.700                    8121.0000
1165.200                    8175.2000
1165.700                    8071.7000
1166.200                    7889.0000
1166.700                    7544.1000
1167.200                    7292.3000
1167.700                    7294.5000
1168.200                    7531.7000
1168.700                    7909.9000
1169.200                    8074.0000
1169.700                    7759.3000
1170.200                    7425.8000
1170.700                    6909.6000
1171.200                    6643.7000
1171.700                    6598.9000
1172.200                    6571.4000
1172.700                    6528.0000
1173.200                    6506.9000
1173.700                    6581.1000
1174.200                    6831.7000
1174.700                    6550.1000
1175.200                    6551.2000
1175.700                    6559.4000
1176.200                    6469.4000
1176.700                    6423.0000
1177.200                    6580.5000
1177.700                    6544.7000
1178.200                    6403.3000
1178.700                    6336.3000
1179.200                    6311.1000
1179.700                    6438.4000
1180.200                    6334.5000
1180.700                    6311.8000
1181.200                    6252.8000
1181.700                    6170.0000
1182.200                    6188.4000
1182.700                    6194.8000
1183.200                    6240.0000
1183.700                    6139.5000
1184.200                    6017.8000
1184.700                    6010.0000
1185.200                    6142.3000
1185.700                    6219.1000
1186.200                    6114.2000
1186.700                    6172.6000
1187.200                    6112.7000
1187.700                    5961.6000
1188.200                    6077.7000
1188.700                    6023.0000
1189.200                    6208.8000
1189.700                    6149.6000
1190.200                    6152.7000
1190.700                    6143.1000
1191.200                    6100.8000
1191.700                    6109.3000
1192.200                    6038.4000
1192.700                    6050.7000
1193.200                    6146.3000
1193.700                    6215.3000
1194.200                    6266.6000
1194.700                    6212.5000
1195.200                    6169.0000
1195.700                    6241.5000
1196.200                    6174.9000
1196.700                    6285.2000
1197.200                    6300.1000
1197.700                    6239.5000
1198.200                    6408.4000
1198.700                    6443.9000
1199.200                    6594.6000
1199.700                    6716.2000
1200.200                    6935.2000
1200.700                    7225.7000
1201.200                    7334.1000
1201.700                    7406.7000
1202.200                    7232.3000
1202.700                    6813.9000
1203.200                    6474.1000
1203.700                    6191.6000
1204.200                    6195.5000
1204.700                    5907.8000
1205.200                    6118.8000
1205.700                    6035.9000
1206.200                    6075.0000
1206.700                    5997.6000
1207.200                    5925.3000
1207.700                    5978.6000
1208.200                    6098.9000
1208.700                    6105.9000
1209.200                    6082.5000
1209.700                    6145.5000
1210.200                    6148.3000
1210.700                    5941.3000
1211.200                    6094.3000
1211.700                    6044.0000
1212.200                    5971.4000
1212.700                    6059.8000
1213.200                    5981.5000
1213.700                    5954.4000
1214.200                    6054.9000
1214.700                    5967.1000
1215.200                    6094.4000
1215.700                    6136.0000
1216.200                    5915.1000
1216.700                    6072.9000
1217.200                    6025.2000
1217.700                    6021.6000
1218.200                    6135.9000
1218.700                    6023.6000
1219.200                    6042.1000
1219.700                    6017.3000
1220.200                    6075.6000
1220.700                    5997.2000
1221.200                    5982.9000
1221.700                    6033.0000
1222.200                    6110.9000
1222.700                    6033.6000
1223.200                    6002.1000
1223.700                    6055.8000
1224.200                    6020.7000
1224.700                    5817.4000
1225.200                    5984.9000
1225.700                    5984.9000
1226.200                    5986.2000
1226.700                    5896.7000
1227.200                    5864.4000
1227.700                    5948.1000
1228.200                    6031.2000
1228.700                    5952.7000
1229.200                    6109.4000
1229.700                    6023.4000
1230.200                    5983.6000
1230.700                    5874.5000
1231.200                    5913.6000
1231.700                    5890.8000
1232.200                    5979.9000
1232.700                    5962.6000
1233.200                    5981.1000
1233.700                    6193.5000
1234.200                    5942.7000
1234.700                    5934.5000
1235.200                    5862.7000
1235.700                    5902.7000
1236.200                    5887.0000
1236.700                    6058.2000
1237.200                    6023.0000
1237.700                    5969.5000
1238.200                    5971.2000
1238.700                    5927.4000
1239.200                    5875.1000
1239.700                    5976.1000
1240.200                    5935.6000
1240.700                    5994.7000
1241.200                    5924.3000
1241.700                    6062.0000
1242.200                    5907.6000
1242.700                    5953.1000
1243.200                    6046.3000
1243.700                    6026.2000
1244.200                    5974.5000
1244.700                    6066.4000
1245.200                    6073.9000
1245.700                    5901.2000
1246.200                    6045.6000
1246.700                    6159.6000
1247.200                    6068.5000
1247.700                    6168.0000
1248.200                    6217.7000
1248.700                    6153.2000
1249.200                    6030.1000
1249.700                    5998.4000
1250.200                    6044.8000
1250.700                    6202.4000
1251.200                    6199.2000
1251.700                    6115.7000
1252.200                    6091.2000
1252.700                    6131.3000
1253.200                    5946.5000
1253.700                    6013.8000
1254.200                    6178.5000
1254.700                    6081.0000
1255.200                    6143.9000
1255.700                    6164.2000
1256.200                    6007.7000
1256.700                    6112.4000
1257.200                    6122.0000
1257.700                    6252.1000
1258.200                    6261.6000
1258.700                    6230.1000
1259.200                    6268.4000
1259.700                    6309.8000
1260.200                    6163.5000
1260.700                    6229.0000
1261.200                    6138.9000
1261.700                    6094.1000
1262.200                    6115.3000
1262.700                    6087.4000
1263.200                    6117.5000
1263.700                    6089.4000
1264.200                    6151.0000
1264.700                    6145.8000
1265.200                    6114.1000
1265.700                    6295.3000
1266.200                    6129.6000
1266.700                    6139.6000
1267.200                    6198.7000
1267.700                    6138.4000
1268.200                    5970.1000
1268.700                    6093.8000
1269.200                    6169.1000
1269.700                    6307.5000
1270.200                    6215.8000
1270.700                    6140.7000
1271.200                    6150.8000
1271.700                    6071.2000
1272.200                    6086.7000
1272.700                    6133.9000
1273.200                    6110.9000
1273.700                    6226.5000
1274.200                    6226.2000
1274.700                    6309.3000
1275.200                    6108.7000
1275.700                    6182.7000
1276.200                    6152.1000
1276.700                    6243.8000
1277.200                    6285.2000
1277.700                    6364.2000
1278.200                    6310.4000
1278.700                    6210.2000
1279.200                    6129.2000
1279.700                    6198.4000
1280.200                    6195.6000
1280.700                    6206.2000
1281.200                    6316.6000
1281.700                    6192.0000
1282.200                    6192.9000
1282.700                    6360.9000
1283.200                    6344.3000
1283.700                    6169.8000
1284.200                    6300.6000
1284.700                    6264.2000
1285.200                    6362.1000
1285.700                    6475.2000
1286.200                    6365.9000
1286.700                    6316.2000
1287.200                    6375.6000
1287.700                    6416.4000
1288.200                    6307.5000
1288.700                    6256.4000
1289.200                    6252.1000
1289.700                    6308.9000
1290.200                    6340.9000
1290.700                    6238.3000
1291.200                    6443.4000
1291.700                    6387.0000
1292.200                    6359.7000
1292.700                    6468.7000
1293.200                    6428.0000
1293.700                    6424.6000
1294.200                    6418.3000
1294.700                    6217.8000
1295.200                    6386.1000
1295.700                    6534.8000
1296.200                    6457.6000
1296.700                    6403.5000
1297.200                    6400.6000
1297.700                    6514.8000
1298.200                    6419.9000
1298.700                    6334.5000
1299.200                    6408.8000
1299.700                    6425.4000
1300.200                    6405.4000
1300.700                    6540.4000
1301.200                    6478.3000
1301.700                    6520.2000
1302.200                    6463.6000
1302.700                    6530.8000
1303.200                    6499.8000
1303.700                    6524.9000
1304.200                    6588.3000
1304.700                    6588.6000
1305.200                    6616.8000
1305.700                    6537.2000
1306.200                    6406.6000
1306.700                    6451.5000
1307.200                    6576.1000
1307.700                    6633.9000
1308.200                    6534.2000
1308.700                    6661.8000
1309.200                    6694.6000
1309.700                    6641.8000
1310.200                    6562.1000
1310.700                    6721.0000
1311.200                    6580.0000
1311.700                    6514.4000
1312.200                    6535.7000
1312.700                    6695.6000
1313.200                    6698.3000
1313.700                    6624.9000
1314.200                    6584.1000
1314.700                    6659.5000
1315.200                    6718.2000
1315.700                    6663.5000
1316.200                    6679.2000
1316.700                    6724.5000
1317.200                    6826.9000
1317.700                    6784.5000
1318.200                    6701.3000
1318.700                    6726.2000
1319.200                    6836.0000
1319.700                    6861.7000
1320.200                    6745.8000
1320.700                    6774.0000
1321.200                    6722.3000
1321.700                    6681.4000
1322.200                    6798.2000
1322.700                    6836.6000
1323.200                    6994.9000
1323.700                    6982.6000
1324.200                    7148.2000
1324.700                    6971.2000
1325.200                    6843.3000
1325.700                    6912.9000
1326.200                    6851.0000
1326.700                    6833.8000
1327.200                    6781.9000
1327.700                    6827.6000
1328.200                    6910.9000
1328.700                    6895.1000
1329.200                    6939.6000
1329.700                    6925.8000
1330.200                    7126.6000
1330.700                    6945.6000
1331.200                    7046.2000
1331.700                    7072.4000
1332.200                    7155.5000
1332.700                    7252.2000
1333.200                    7126.7000
1333.700                    7192.5000
1334.200                    7115.9000
1334.700                    7203.1000
1335.200                    7261.1000
1335.700                    7068.6000
1336.200                    7089.4000
1336.700                    7142.6000
1337.200                    7154.5000
1337.700                    7186.4000
1338.200                    7175.3000
1338.700                    7068.2000
1339.200                    7117.9000
1339.700                    7026.2000
1340.200                    7177.4000
1340.700                    7069.7000
1341.200                    7185.6000
1341.700                    7234.9000
1342.200                    7167.2000
1342.700                    7111.6000
1343.200                    7348.8000
1343.700                    7277.1000
1344.200                    7219.3000
1344.700                    7199.0000
1345.200                    7233.1000
1345.700                    7207.0000
1346.200                    7227.7000
1346.700                    7351.0000
1347.200                    7285.3000
1347.700                    7356.1000
1348.200                    7374.6000
1348.700                    7312.8000
1349.200                    7366.3000
1349.700                    7312.3000
1350.200                    7412.5000
1350.700                    7546.4000
1351.200                    7267.8000
1351.700                    7343.9000
1352.200                    7367.3000
1352.700                    7352.5000
1353.200                    7347.6000
1353.700                    7414.0000
1354.200                    7470.3000
1354.700                    7417.7000
1355.200                    7422.2000
1355.700                    7459.5000
1356.200                    7541.5000
1356.700                    7665.1000
1357.200                    7643.6000
1357.700                    7687.8000
1358.200                    7591.4000
1358.700                    7544.8000
1359.200                    7547.0000
1359.700                    7725.6000
1360.200                    7685.1000
1360.700                    7667.0000
1361.200                    7722.0000
1361.700                    7813.4000
1362.200                    7716.3000
1362.700                    7867.5000
1363.200                    7775.6000
1363.700                    7756.0000
1364.200                    7845.1000
1364.700                    7893.0000
1365.200                    7923.8000
1365.700                    7946.9000
1366.200                    7971.0000
1366.700                    8106.6000
1367.200                    8029.1000
1367.700                    7981.8000
1368.200                    7983.9000
1368.700                    7964.9000
1369.200                    8050.3000
1369.700                    8131.3000
1370.200                    8340.2000
1370.700                    8264.3000
1371.200                    8324.2000
1371.700                    8300.9000
1372.200                    8329.6000
1372.700                    8379.6000
1373.200                    8410.5000
1373.700                    8543.0000
1374.200                    8466.9000
1374.700                    8532.1000
1375.200                    8606.6000
1375.700                    8551.0000
1376.200                    8622.2000
1376.700                    8620.1000
1377.200                    8561.5000
1377.700                    8482.6000
1378.200                    8647.0000
1378.700                    8513.6000
1379.200                    8421.8000
1379.700                    8297.5000
1380.200                    8258.2000
1380.700                    8255.5000
1381.200                    8248.9000
1381.700                    8159.9000
1382.200                    8102.9000
1382.700                    8136.7000
1383.200                    8207.3000
1383.700                    8261.3000
1384.200                    8246.2000
1384.700                    8026.5000
1385.200                    8025.6000
1385.700                    8006.1000
1386.200                    7818.4000
1386.700                    7723.1000
1387.200                    7638.3000
1387.700                    7729.8000
1388.200                    7642.5000
1388.700                    7391.2000
1389.200                    7281.5000
1389.700                    7169.2000
1390.200                    7032.6000
1390.700                    6970.1000
1391.200                    6889.2000
1391.700                    6934.3000
1392.200                    6970.7000
1392.700                    6769.8000
1393.200                    6711.2000
1393.700                    6694.2000
1394.200                    6894.8000
1394.700                    7042.8000
1395.200                    7429.5000
1395.700                    7934.0000
1396.200                    9084.1000
1396.700                   11634.2000
1397.200                   16321.0000
1397.700                   22138.9000
1398.200                   26582.0000
1398.700                   26888.8000
1399.200                   22407.5000
1399.700                   16056.0000
1400.200                   13515.5000
1400.700                   16409.7000
1401.200                   22986.7000
1401.700                   29266.8000
1402.200                   31438.5000
1402.700                   26873.2000
1403.200                   17594.2000
1403.700                    9731.0000
1404.200                    6013.0000
1404.700                    4505.2000
1405.200                    4116.0000
1405.700                    3695.9000
1406.200                    3608.0000
1406.700                    3823.5000
1407.200                    4026.6000
1407.700                    4447.9000
1408.200                    4638.1000
1408.700                    4581.2000
1409.200                    4281.8000
1409.700                    4155.5000
1410.200                    4247.7000
1410.700                    4584.0000
1411.200                    4786.0000
1411.700                    4903.2000
1412.200                    4763.6000
1412.700                    4448.8000
1413.200                    4060.7000
1413.700                    3708.0000
1414.200                    3479.0000
1414.700                    3156.6000
1415.200                    2775.4000
1415.700                    2505.9000
1416.200                    2390.9000
1416.700                    2336.8000
1417.200                    2263.8000
1417.700                    2215.0000
1418.200                    2246.6000
1418.700                    2219.3000
1419.200                    2121.5000
1419.700                    2155.8000
1420.200                    2168.9000
1420.700                    2251.2000
1421.200                    2167.2000
1421.700                    2261.0000
1422.200                    2273.3000
1422.700                    2308.9000
1423.200                    2304.6000
1423.700                    2228.9000
1424.200                    2388.2000
1424.700                    2320.3000
1425.200                    2362.5000
1425.700                    2419.7000
1426.200                    2580.4000
1426.700                    2673.7000
1427.200                    2686.7000
1427.700                    2698.2000
1428.200                    2783.5000
1428.700                    2805.3000
1429.200                    2805.0000
1429.700                    2814.4000
1430.200                    2712.2000
1430.700                    2588.2000
1431.200                    2499.0000
1431.700                    2357.9000
1432.200                    2240.2000
1432.700                    2183.0000
1433.200                    2051.4000
1433.700                    1912.9000
1434.200                    1983.8000
1434.700                    1955.7000
1435.200                    1845.5000
1435.700                    1880.6000
1436.200                    1806.8000
1436.700                    1794.8000
1437.200                    1784.8000
1437.700                    1766.5000
1438.200                    1766.6000
1438.700                    1685.3000
1439.200                    1767.7000
1439.700                    1639.0000
1440.200                    1670.6000
1440.700                    1660.9000
1441.200                    1615.0000
1441.700                    1666.9000
1442.200                    1697.3000
1442.700                    1649.8000
1443.200                    1651.7000
1443.700                    1550.8000
1444.200                    1629.5000
1444.700                    1598.1000
1445.200                    1609.3000
1445.700                    1591.8000
1446.200                    1536.0000
1446.700                    1520.5000
1447.200                    1621.1000
1447.700                    1631.5000
1448.200                    1642.4000
1448.700                    1623.6000
1449.200                    1596.2000
1449.700                    1591.3000
1450.200                    1516.4000
1450.700                    1611.3000
1451.200                    1629.6000
1451.700                    1609.4000
1452.200                    1556.7000
1452.700                    1611.5000
1453.200                    1567.4000
1453.700                    1557.5000
1454.200                    1579.9000
1454.700                    1602.1000
1455.200                    1652.4000
1455.700                    1610.5000
1456.200                    1604.7000
1456.700                    1647.1000
1457.200                    1610.3000
1457.700                    1577.6000
1458.200                    1579.7000
1458.700                    1612.4000
1459.200                    1639.7000
1459.700                    1584.1000
1460.200                    1624.0000
1460.700                    1498.7000
1461.200                    1563.2000
1461.700                    1621.1000
1462.200                    1590.2000
1462.700                    1593.0000
1463.200                    1606.6000
1463.700                    1508.0000
1464.200                    1566.0000
1464.700                    1554.2000
1465.200                    1601.7000
1465.700                    1638.7000
1466.200                    1607.0000
1466.700                    1585.9000
1467.200                    1626.6000
1467.700                    1659.3000
1468.200                    1653.9000
1468.700                    1661.4000
1469.200                    1686.2000
1469.700                    1705.1000
1470.200                    1633.1000
1470.700                    1567.6000
1471.200                    1575.4000
1471.700                    1533.1000
1472.200                    1468.6000
1472.700                    1469.0000
1473.200                    1462.1000
1473.700                    1446.9000
1474.200                    1438.8000
1474.700                    1401.3000
1475.200                    1351.0000
1475.700                    1359.5000
1476.200                    1383.8000
1476.700                    1502.7000
1477.200                    1608.4000
1477.700                    1859.7000
1478.200                    2311.8000
1478.700                    2787.1000
1479.200                    3261.1000
1479.700                    3428.6000
1480.200                    3625.2000
1480.700                    3445.1000
1481.200                    3526.5000
1481.700                    3533.9000
1482.200                    3854.8000
1482.700                    3800.9000
1483.200                    3541.3000
1483.700                    3042.9000
1484.200                    2422.1000
1484.700                    1829.3000
1485.200                    1427.0000
1485.700                    1196.0000
1486.200                    1056.7000
1486.700                     950.4000
1487.200                     904.8000
1487.700                     887.0000
1488.200                     914.3000
1488.700                     911.4000
1489.200                     940.8000
1489.700                     986.0000
1490.200                     982.9000
1490.700                    1005.6000
1491.200                    1005.1000
1491.700                    1004.1000
1492.200                     967.3000
1492.700                     973.4000
