# Transition                      wide 
# Notes                           
# Creation Comment                
# Energy Mode                     KE
# Start Energy in eV              150
# End Energy in eV                1260
# Energy Step in eV               0.5
# Number Of Sweeps                1
# Dwell Time per Sweep in s       0.3
# Analyser Mode                   CAE
# Pass Energy in eV/Retard Ratio  50
# Magnification                   high
# Divide Voltages By 10           off
# Excitation Source               Mg Ka 1253.6 eV normal
# Excitation Energy in eV         1253.6
# Analyser Workfunction in eV     4.5
# Entrance Slit                   6 x 12 mm
# Exit Slit                       5 x 11 mm
# 
# 
# Kinetic Energy in eV         Counts
# --------------------         ------
150.000                    18256.2000
150.500                    18094.9000
151.000                    17941.2000
151.500                    18027.9000
152.000                    17961.1000
152.500                    17761.4000
153.000                    17857.0000
153.500                    17718.6000
154.000                    17773.9000
154.500                    17755.6000
155.000                    18037.4000
155.500                    17843.0000
156.000                    18030.1000
156.500                    18045.9000
157.000                    17736.4000
157.500                    17807.3000
158.000                    17969.6000
158.500                    17806.4000
159.000                    17687.3000
159.500                    17730.8000
160.000                    17602.4000
160.500                    17712.0000
161.000                    17724.6000
161.500                    17818.2000
162.000                    17909.9000
162.500                    17715.5000
163.000                    17715.8000
163.500                    17658.0000
164.000                    17559.4000
164.500                    17624.7000
165.000                    17550.8000
165.500                    17750.9000
166.000                    17479.4000
166.500                    17603.4000
167.000                    17471.1000
167.500                    17663.1000
168.000                    17596.6000
168.500                    17587.1000
169.000                    17665.1000
169.500                    17351.5000
170.000                    17345.0000
170.500                    17578.8000
171.000                    17817.1000
171.500                    17396.7000
172.000                    17486.4000
172.500                    17422.0000
173.000                    17421.4000
173.500                    17369.1000
174.000                    17375.9000
174.500                    17520.5000
175.000                    17558.2000
175.500                    17364.7000
176.000                    17568.2000
176.500                    17686.8000
177.000                    17452.6000
177.500                    17504.1000
178.000                    17480.6000
178.500                    17692.4000
179.000                    17713.7000
179.500                    17453.0000
180.000                    17303.2000
180.500                    17302.8000
181.000                    17329.0000
181.500                    17514.2000
182.000                    17353.0000
182.500                    17345.7000
183.000                    17310.8000
183.500                    17230.8000
184.000                    17424.4000
184.500                    17411.9000
185.000                    17330.5000
185.500                    17025.8000
186.000                    17197.5000
186.500                    17069.3000
187.000                    17367.2000
187.500                    17489.1000
188.000                    17237.7000
188.500                    17162.5000
189.000                    17351.3000
189.500                    17145.4000
190.000                    17280.7000
190.500                    17058.8000
191.000                    17263.6000
191.500                    17315.5000
192.000                    17193.7000
192.500                    17133.5000
193.000                    17042.8000
193.500                    16988.8000
194.000                    17400.5000
194.500                    17151.1000
195.000                    17052.9000
195.500                    17213.5000
196.000                    17160.2000
196.500                    16966.2000
197.000                    16958.7000
197.500                    16927.8000
198.000                    17226.7000
198.500                    17254.9000
199.000                    17087.6000
199.500                    16840.8000
200.000                    16843.6000
200.500                    17086.4000
201.000                    17163.3000
201.500                    16904.4000
202.000                    17129.5000
202.500                    17125.4000
203.000                    16943.5000
203.500                    17077.9000
204.000                    16952.3000
204.500                    17213.8000
205.000                    16937.5000
205.500                    16850.5000
206.000                    16952.9000
206.500                    16847.0000
207.000                    16871.9000
207.500                    16842.4000
208.000                    16974.8000
208.500                    17054.4000
209.000                    16892.0000
209.500                    16886.5000
210.000                    17108.7000
210.500                    16733.2000
211.000                    16686.7000
211.500                    16841.2000
212.000                    16875.7000
212.500                    16743.5000
213.000                    16784.0000
213.500                    16921.7000
214.000                    16853.0000
214.500                    16942.1000
215.000                    17030.5000
215.500                    16930.2000
216.000                    16973.2000
216.500                    17043.0000
217.000                    16806.3000
217.500                    16905.3000
218.000                    16934.0000
218.500                    16824.6000
219.000                    16972.3000
219.500                    16834.4000
220.000                    16809.5000
220.500                    16960.1000
221.000                    16860.5000
221.500                    16835.0000
222.000                    16900.0000
222.500                    16744.1000
223.000                    16753.0000
223.500                    16662.9000
224.000                    16783.7000
224.500                    16697.2000
225.000                    16670.1000
225.500                    16735.5000
226.000                    16626.8000
226.500                    16593.0000
227.000                    16546.1000
227.500                    16543.1000
228.000                    16483.6000
228.500                    16584.0000
229.000                    16678.2000
229.500                    16497.6000
230.000                    16448.0000
230.500                    16477.9000
231.000                    16519.3000
231.500                    16453.8000
232.000                    16556.7000
232.500                    16373.1000
233.000                    16541.7000
233.500                    16726.0000
234.000                    16718.3000
234.500                    16727.1000
235.000                    17026.2000
235.500                    17269.9000
236.000                    17483.9000
236.500                    17486.9000
237.000                    17837.6000
237.500                    18128.5000
238.000                    18565.4000
238.500                    18683.4000
239.000                    18682.4000
239.500                    18773.4000
240.000                    18580.0000
240.500                    18476.5000
241.000                    17980.6000
241.500                    17975.9000
242.000                    17468.4000
242.500                    17271.1000
243.000                    17004.7000
243.500                    16956.5000
244.000                    16948.0000
244.500                    17080.6000
245.000                    16916.8000
245.500                    16715.9000
246.000                    16510.8000
246.500                    16651.4000
247.000                    16598.2000
247.500                    16551.5000
248.000                    16644.1000
248.500                    16441.4000
249.000                    16344.5000
249.500                    16309.8000
250.000                    16393.5000
250.500                    16186.2000
251.000                    16351.3000
251.500                    16268.5000
252.000                    16374.1000
252.500                    16407.1000
253.000                    16522.5000
253.500                    16758.7000
254.000                    16667.3000
254.500                    16816.3000
255.000                    16897.8000
255.500                    17220.2000
256.000                    17167.0000
256.500                    17267.6000
257.000                    17445.4000
257.500                    17692.2000
258.000                    17718.0000
258.500                    17440.8000
259.000                    17558.7000
259.500                    17482.4000
260.000                    17393.7000
260.500                    17493.6000
261.000                    17360.0000
261.500                    17271.9000
262.000                    17186.5000
262.500                    16891.3000
263.000                    16907.5000
263.500                    16822.4000
264.000                    16889.8000
264.500                    16561.3000
265.000                    16181.8000
265.500                    15977.1000
266.000                    15715.2000
266.500                    15477.8000
267.000                    15003.0000
267.500                    14795.2000
268.000                    14677.2000
268.500                    14344.8000
269.000                    14337.8000
269.500                    13974.9000
270.000                    13797.1000
270.500                    13557.9000
271.000                    13316.6000
271.500                    12992.5000
272.000                    12762.3000
272.500                    12521.3000
273.000                    12535.7000
273.500                    12127.5000
274.000                    12079.5000
274.500                    11738.8000
275.000                    11733.1000
275.500                    11514.5000
276.000                    11245.0000
276.500                    11214.8000
277.000                    11075.1000
277.500                    11006.2000
278.000                    10822.4000
278.500                    10663.9000
279.000                    10655.8000
279.500                    10576.4000
280.000                    10392.4000
280.500                    10332.2000
281.000                    10252.4000
281.500                    10171.5000
282.000                     9943.9000
282.500                    10143.8000
283.000                    10096.5000
283.500                     9820.5000
284.000                     9900.4000
284.500                     9937.2000
285.000                     9913.1000
285.500                     9804.5000
286.000                     9776.7000
286.500                     9780.1000
287.000                     9801.2000
287.500                     9860.1000
288.000                     9755.7000
288.500                     9726.9000
289.000                     9797.0000
289.500                     9802.9000
290.000                     9843.8000
290.500                     9912.8000
291.000                     9942.7000
291.500                     9926.6000
292.000                     9729.8000
292.500                     9690.5000
293.000                     9811.9000
293.500                     9755.1000
294.000                     9715.4000
294.500                     9651.4000
295.000                     9704.0000
295.500                     9723.2000
296.000                     9679.7000
296.500                     9835.6000
297.000                     9699.1000
297.500                     9705.0000
298.000                     9669.1000
298.500                     9790.9000
299.000                     9773.1000
299.500                     9771.6000
300.000                     9801.6000
300.500                     9822.6000
301.000                     9831.8000
301.500                     9730.8000
302.000                     9841.7000
302.500                     9789.6000
303.000                     9689.2000
303.500                     9814.7000
304.000                     9730.7000
304.500                     9726.2000
305.000                     9904.1000
305.500                     9705.2000
306.000                     9679.7000
306.500                     9599.9000
307.000                     9702.6000
307.500                     9507.9000
308.000                     9576.0000
308.500                     9727.9000
309.000                     9861.9000
309.500                     9741.1000
310.000                     9772.0000
310.500                     9825.3000
311.000                     9708.6000
311.500                     9642.8000
312.000                     9683.3000
312.500                     9760.8000
313.000                     9614.0000
313.500                     9673.5000
314.000                     9468.4000
314.500                     9803.9000
315.000                     9622.5000
315.500                     9602.8000
316.000                     9618.5000
316.500                     9653.4000
317.000                     9580.8000
317.500                     9678.7000
318.000                     9794.7000
318.500                     9736.2000
319.000                     9528.5000
319.500                     9593.9000
320.000                     9724.7000
320.500                     9593.8000
321.000                     9688.8000
321.500                     9657.4000
322.000                     9592.2000
322.500                     9510.0000
323.000                     9582.7000
323.500                     9653.2000
324.000                     9662.5000
324.500                     9648.0000
325.000                     9639.4000
325.500                     9674.8000
326.000                     9731.4000
326.500                     9550.5000
327.000                     9545.3000
327.500                     9531.7000
328.000                     9445.3000
328.500                     9516.6000
329.000                     9626.6000
329.500                     9646.1000
330.000                     9547.5000
330.500                     9677.1000
331.000                     9670.9000
331.500                     9692.9000
332.000                     9474.7000
332.500                     9618.8000
333.000                     9671.9000
333.500                     9553.1000
334.000                     9546.4000
334.500                     9582.5000
335.000                     9481.0000
335.500                     9458.7000
336.000                     9588.4000
336.500                     9679.5000
337.000                     9748.5000
337.500                     9742.6000
338.000                     9599.5000
338.500                     9646.0000
339.000                     9540.1000
339.500                     9697.1000
340.000                     9494.5000
340.500                     9541.4000
341.000                     9592.0000
341.500                     9582.5000
342.000                     9592.7000
342.500                     9541.0000
343.000                     9620.1000
343.500                     9565.5000
344.000                     9613.5000
344.500                     9599.5000
345.000                     9437.0000
345.500                     9606.3000
346.000                     9587.5000
346.500                     9549.1000
347.000                     9437.1000
347.500                     9451.3000
348.000                     9544.6000
348.500                     9541.7000
349.000                     9624.3000
349.500                     9502.3000
350.000                     9481.7000
350.500                     9510.0000
351.000                     9488.4000
351.500                     9411.8000
352.000                     9514.1000
352.500                     9574.3000
353.000                     9453.4000
353.500                     9535.6000
354.000                     9601.7000
354.500                     9601.2000
355.000                     9555.7000
355.500                     9337.6000
356.000                     9410.8000
356.500                     9492.0000
357.000                     9576.8000
357.500                     9559.5000
358.000                     9547.9000
358.500                     9523.4000
359.000                     9588.2000
359.500                     9592.2000
360.000                     9613.6000
360.500                     9540.6000
361.000                     9474.8000
361.500                     9691.0000
362.000                     9504.2000
362.500                     9535.4000
363.000                     9707.6000
363.500                     9535.6000
364.000                     9593.4000
364.500                     9587.5000
365.000                     9499.6000
365.500                     9428.7000
366.000                     9564.9000
366.500                     9418.9000
367.000                     9531.2000
367.500                     9532.3000
368.000                     9398.2000
368.500                     9454.9000
369.000                     9516.3000
369.500                     9608.7000
370.000                     9489.7000
370.500                     9530.9000
371.000                     9566.1000
371.500                     9546.8000
372.000                     9459.4000
372.500                     9531.6000
373.000                     9684.7000
373.500                     9393.2000
374.000                     9503.8000
374.500                     9565.4000
375.000                     9629.6000
375.500                     9608.1000
376.000                     9517.3000
376.500                     9637.9000
377.000                     9550.1000
377.500                     9511.0000
378.000                     9570.3000
378.500                     9695.8000
379.000                     9609.9000
379.500                     9554.3000
380.000                     9620.0000
380.500                     9525.1000
381.000                     9606.3000
381.500                     9585.0000
382.000                     9541.8000
382.500                     9421.6000
383.000                     9444.0000
383.500                     9518.9000
384.000                     9486.1000
384.500                     9551.3000
385.000                     9586.1000
385.500                     9615.8000
386.000                     9493.7000
386.500                     9741.2000
387.000                     9557.6000
387.500                     9440.9000
388.000                     9358.6000
388.500                     9393.1000
389.000                     9627.4000
389.500                     9376.8000
390.000                     9534.7000
390.500                     9556.4000
391.000                     9515.5000
391.500                     9438.1000
392.000                     9509.8000
392.500                     9568.3000
393.000                     9485.0000
393.500                     9439.9000
394.000                     9391.3000
394.500                     9595.1000
395.000                     9336.3000
395.500                     9540.4000
396.000                     9667.9000
396.500                     9594.1000
397.000                     9587.2000
397.500                     9460.8000
398.000                     9673.6000
398.500                     9591.6000
399.000                     9446.0000
399.500                     9559.8000
400.000                     9532.7000
400.500                     9539.1000
401.000                     9450.5000
401.500                     9691.6000
402.000                     9530.1000
402.500                     9507.8000
403.000                     9401.7000
403.500                     9550.1000
404.000                     9613.3000
404.500                     9568.1000
405.000                     9314.3000
405.500                     9561.5000
406.000                     9538.1000
406.500                     9525.0000
407.000                     9554.6000
407.500                     9461.2000
408.000                     9559.6000
408.500                     9658.5000
409.000                     9541.1000
409.500                     9657.3000
410.000                     9449.4000
410.500                     9467.6000
411.000                     9595.3000
411.500                     9510.7000
412.000                     9644.3000
412.500                     9423.8000
413.000                     9439.5000
413.500                     9661.9000
414.000                     9575.1000
414.500                     9673.1000
415.000                     9680.2000
415.500                     9574.4000
416.000                     9522.1000
416.500                     9647.7000
417.000                     9719.7000
417.500                     9706.2000
418.000                     9782.7000
418.500                     9590.9000
419.000                     9646.3000
419.500                     9614.0000
420.000                     9716.2000
420.500                     9720.0000
421.000                     9688.1000
421.500                     9459.5000
422.000                     9651.7000
422.500                     9658.7000
423.000                     9780.5000
423.500                     9603.3000
424.000                     9598.9000
424.500                     9724.4000
425.000                     9639.8000
425.500                     9681.2000
426.000                     9620.0000
426.500                     9541.7000
427.000                     9501.2000
427.500                     9659.9000
428.000                     9686.3000
428.500                     9657.7000
429.000                     9724.7000
429.500                     9777.6000
430.000                     9782.0000
430.500                     9833.8000
431.000                     9707.4000
431.500                     9650.6000
432.000                     9682.4000
432.500                     9703.5000
433.000                     9638.2000
433.500                     9666.2000
434.000                     9793.9000
434.500                     9755.1000
435.000                     9851.4000
435.500                     9683.7000
436.000                     9628.7000
436.500                     9646.6000
437.000                     9890.9000
437.500                     9780.4000
438.000                     9782.3000
438.500                     9680.9000
439.000                     9726.2000
439.500                     9724.6000
440.000                     9685.7000
440.500                     9817.2000
441.000                     9869.9000
441.500                     9922.9000
442.000                     9836.2000
442.500                     9803.1000
443.000                     9710.3000
443.500                     9825.0000
444.000                     9828.8000
444.500                     9964.1000
445.000                     9851.8000
445.500                     9831.7000
446.000                     9953.2000
446.500                     9688.5000
447.000                     9610.6000
447.500                     9697.5000
448.000                     9842.9000
448.500                     9776.6000
449.000                     9749.2000
449.500                     9731.4000
450.000                     9877.1000
450.500                     9810.6000
451.000                     9887.6000
451.500                     9997.6000
452.000                     9903.5000
452.500                     9872.6000
453.000                    10019.5000
453.500                     9955.0000
454.000                    10013.0000
454.500                     9909.1000
455.000                    10004.0000
455.500                     9914.8000
456.000                    10037.3000
456.500                     9933.8000
457.000                    10079.1000
457.500                    10154.3000
458.000                     9870.2000
458.500                    10064.1000
459.000                    10071.0000
459.500                    10068.3000
460.000                    10043.4000
460.500                    10091.6000
461.000                    10081.0000
461.500                    10261.4000
462.000                    10111.0000
462.500                    10063.7000
463.000                    10003.0000
463.500                    10092.0000
464.000                    10204.4000
464.500                    10098.1000
465.000                    10231.1000
465.500                    10216.5000
466.000                    10224.6000
466.500                    10296.7000
467.000                    10222.9000
467.500                    10361.4000
468.000                    10336.5000
468.500                    10300.8000
469.000                    10377.5000
469.500                    10305.0000
470.000                    10462.5000
470.500                    10524.5000
471.000                    10457.4000
471.500                    10501.2000
472.000                    10586.9000
472.500                    10428.3000
473.000                    10423.5000
473.500                    10036.9000
474.000                    10268.5000
474.500                    10333.2000
475.000                    10236.3000
475.500                    10299.2000
476.000                    10405.9000
476.500                    10310.2000
477.000                    10239.2000
477.500                    10132.9000
478.000                    10281.0000
478.500                    10225.0000
479.000                    10265.5000
479.500                    10381.3000
480.000                    10323.9000
480.500                    10392.4000
481.000                    10482.4000
481.500                    10523.9000
482.000                    10690.7000
482.500                    10726.9000
483.000                    10865.1000
483.500                    10761.3000
484.000                    10916.8000
484.500                    11121.2000
485.000                    11072.1000
485.500                    10992.3000
486.000                    11096.9000
486.500                    11020.0000
487.000                    10971.6000
487.500                    11114.5000
488.000                    11289.3000
488.500                    10984.5000
489.000                    10936.8000
489.500                    10861.2000
490.000                    10816.3000
490.500                    10710.6000
491.000                    10604.3000
491.500                    10756.7000
492.000                    10626.3000
492.500                    10650.7000
493.000                    10560.6000
493.500                    10391.8000
494.000                    10256.7000
494.500                    10352.7000
495.000                    10432.5000
495.500                    10223.1000
496.000                    10219.5000
496.500                    10170.0000
497.000                     9963.6000
497.500                    10017.1000
498.000                    10055.4000
498.500                     9998.4000
499.000                     9958.3000
499.500                     9997.1000
500.000                     9907.7000
500.500                     9912.2000
501.000                     9945.3000
501.500                     9981.8000
502.000                    10004.8000
502.500                    10397.4000
503.000                    10511.8000
503.500                    10668.2000
504.000                    10904.2000
504.500                    10810.7000
505.000                    11069.1000
505.500                    11411.6000
506.000                    11580.8000
506.500                    11789.8000
507.000                    11887.2000
507.500                    12062.4000
508.000                    12152.6000
508.500                    12251.6000
509.000                    12406.1000
509.500                    12407.3000
510.000                    12281.1000
510.500                    12201.6000
511.000                    11952.4000
511.500                    11736.8000
512.000                    11646.9000
512.500                    11358.5000
513.000                    11221.5000
513.500                    10901.1000
514.000                    10735.8000
514.500                    10410.2000
515.000                    10484.6000
515.500                    10130.7000
516.000                     9862.8000
516.500                     9510.1000
517.000                     9336.5000
517.500                     9093.1000
518.000                     8846.9000
518.500                     8622.0000
519.000                     8323.9000
519.500                     8185.7000
520.000                     8079.0000
520.500                     7848.5000
521.000                     7718.1000
521.500                     7470.6000
522.000                     7554.6000
522.500                     7447.8000
523.000                     7429.3000
523.500                     7453.7000
524.000                     7409.4000
524.500                     7536.2000
525.000                     7436.0000
525.500                     7317.9000
526.000                     7421.4000
526.500                     7444.5000
527.000                     7375.9000
527.500                     7338.5000
528.000                     7163.4000
528.500                     7188.1000
529.000                     7189.4000
529.500                     7288.8000
530.000                     7326.6000
530.500                     7334.6000
531.000                     7243.7000
531.500                     7176.1000
532.000                     7040.6000
532.500                     7101.2000
533.000                     7145.8000
533.500                     7143.7000
534.000                     7182.7000
534.500                     7107.3000
535.000                     7221.3000
535.500                     7084.9000
536.000                     7136.4000
536.500                     7164.0000
537.000                     7145.8000
537.500                     7207.7000
538.000                     7137.4000
538.500                     7161.3000
539.000                     7174.5000
539.500                     7230.8000
540.000                     7048.8000
540.500                     7173.5000
541.000                     7090.2000
541.500                     7259.6000
542.000                     7318.9000
542.500                     7190.1000
543.000                     7258.7000
543.500                     6984.6000
544.000                     7078.6000
544.500                     7141.0000
545.000                     7035.7000
545.500                     7092.0000
546.000                     6964.2000
546.500                     6835.8000
547.000                     7013.5000
547.500                     6949.0000
548.000                     6953.0000
548.500                     7028.1000
549.000                     7001.0000
549.500                     7147.9000
550.000                     7006.9000
550.500                     7029.1000
551.000                     7032.4000
551.500                     7010.4000
552.000                     6926.8000
552.500                     6843.2000
553.000                     6862.2000
553.500                     6947.3000
554.000                     7061.4000
554.500                     7005.5000
555.000                     6933.3000
555.500                     6985.4000
556.000                     6874.6000
556.500                     6996.6000
557.000                     7015.0000
557.500                     6970.6000
558.000                     7005.3000
558.500                     7064.3000
559.000                     7029.1000
559.500                     6986.6000
560.000                     7001.2000
560.500                     7081.9000
561.000                     7024.8000
561.500                     6975.8000
562.000                     6949.1000
562.500                     7014.0000
563.000                     7115.1000
563.500                     6975.9000
564.000                     6947.7000
564.500                     6951.4000
565.000                     6902.0000
565.500                     6857.2000
566.000                     6884.7000
566.500                     6863.6000
567.000                     6970.4000
567.500                     6910.9000
568.000                     6786.7000
568.500                     6907.9000
569.000                     6933.2000
569.500                     6946.8000
570.000                     6926.8000
570.500                     6876.5000
571.000                     6904.4000
571.500                     6918.4000
572.000                     7021.6000
572.500                     6990.9000
573.000                     6978.3000
573.500                     6799.9000
574.000                     6886.5000
574.500                     7065.1000
575.000                     6915.3000
575.500                     6824.4000
576.000                     6908.9000
576.500                     6915.1000
577.000                     6890.6000
577.500                     6801.9000
578.000                     6920.2000
578.500                     6891.6000
579.000                     6883.7000
579.500                     6885.6000
580.000                     6881.3000
580.500                     7038.5000
581.000                     7007.5000
581.500                     6925.1000
582.000                     6807.7000
582.500                     6805.6000
583.000                     6830.3000
583.500                     6978.5000
584.000                     7062.1000
584.500                     6886.3000
585.000                     6888.5000
585.500                     6744.7000
586.000                     6766.8000
586.500                     6733.3000
587.000                     6729.2000
587.500                     6974.0000
588.000                     6837.5000
588.500                     7018.4000
589.000                     6809.1000
589.500                     6828.9000
590.000                     6851.3000
590.500                     6810.4000
591.000                     6844.0000
591.500                     6893.9000
592.000                     6809.3000
592.500                     6853.4000
593.000                     6800.8000
593.500                     6888.7000
594.000                     6963.4000
594.500                     6880.8000
595.000                     6823.8000
595.500                     6934.3000
596.000                     6859.1000
596.500                     6966.9000
597.000                     6731.8000
597.500                     6774.0000
598.000                     6813.0000
598.500                     6877.4000
599.000                     6803.4000
599.500                     6763.2000
600.000                     6697.8000
600.500                     6771.2000
601.000                     6801.2000
601.500                     6772.6000
602.000                     6663.3000
602.500                     6746.3000
603.000                     6714.9000
603.500                     6801.5000
604.000                     6739.6000
604.500                     6784.2000
605.000                     6797.6000
605.500                     6726.8000
606.000                     6679.6000
606.500                     6836.3000
607.000                     6877.8000
607.500                     6846.6000
608.000                     6851.3000
608.500                     6804.3000
609.000                     6674.6000
609.500                     6837.4000
610.000                     6740.3000
610.500                     6866.7000
611.000                     6700.2000
611.500                     6656.8000
612.000                     6639.2000
612.500                     6723.8000
613.000                     6818.5000
613.500                     6837.2000
614.000                     6860.5000
614.500                     6937.2000
615.000                     6846.1000
615.500                     6859.7000
616.000                     6813.1000
616.500                     6842.3000
617.000                     6943.2000
617.500                     6760.3000
618.000                     6852.4000
618.500                     6788.9000
619.000                     6755.4000
619.500                     6854.3000
620.000                     6758.3000
620.500                     6738.3000
621.000                     6722.9000
621.500                     6810.9000
622.000                     6739.3000
622.500                     6812.7000
623.000                     6866.2000
623.500                     6757.9000
624.000                     6689.6000
624.500                     6755.4000
625.000                     6778.3000
625.500                     6836.8000
626.000                     6779.0000
626.500                     6795.3000
627.000                     6814.5000
627.500                     6781.3000
628.000                     6838.8000
628.500                     6887.3000
629.000                     6770.2000
629.500                     6643.6000
630.000                     6861.1000
630.500                     6874.0000
631.000                     6790.0000
631.500                     6705.0000
632.000                     6743.4000
632.500                     6813.9000
633.000                     6829.8000
633.500                     6773.4000
634.000                     6739.5000
634.500                     6784.4000
635.000                     6716.5000
635.500                     6811.6000
636.000                     6898.0000
636.500                     6813.9000
637.000                     6731.3000
637.500                     6757.6000
638.000                     6784.8000
638.500                     6765.4000
639.000                     6824.1000
639.500                     6848.1000
640.000                     6836.3000
640.500                     6815.5000
641.000                     6972.7000
641.500                     6936.7000
642.000                     6857.7000
642.500                     6833.3000
643.000                     6891.3000
643.500                     6886.7000
644.000                     6827.4000
644.500                     6874.4000
645.000                     6861.3000
645.500                     6990.0000
646.000                     6891.1000
646.500                     6817.7000
647.000                     6874.7000
647.500                     6955.3000
648.000                     6808.9000
648.500                     6840.7000
649.000                     6736.9000
649.500                     6891.3000
650.000                     6895.7000
650.500                     6790.7000
651.000                     6831.5000
651.500                     6660.2000
652.000                     6658.3000
652.500                     6835.0000
653.000                     6792.4000
653.500                     6780.7000
654.000                     6792.6000
654.500                     6857.0000
655.000                     6760.1000
655.500                     6745.4000
656.000                     6932.5000
656.500                     6988.8000
657.000                     6810.0000
657.500                     6670.7000
658.000                     6930.0000
658.500                     6901.9000
659.000                     6782.3000
659.500                     6855.0000
660.000                     6823.1000
660.500                     6765.9000
661.000                     6818.5000
661.500                     6893.1000
662.000                     6840.9000
662.500                     6908.5000
663.000                     6830.3000
663.500                     6847.8000
664.000                     6818.6000
664.500                     6874.2000
665.000                     6936.5000
665.500                     6923.4000
666.000                     6814.6000
666.500                     6873.3000
667.000                     6862.9000
667.500                     6815.4000
668.000                     6808.1000
668.500                     6826.2000
669.000                     6860.2000
669.500                     6831.3000
670.000                     7005.2000
670.500                     6934.0000
671.000                     6987.8000
671.500                     6904.7000
672.000                     6819.8000
672.500                     6978.3000
673.000                     7028.1000
673.500                     6938.3000
674.000                     6943.0000
674.500                     6994.7000
675.000                     6903.9000
675.500                     6783.9000
676.000                     6921.6000
676.500                     6900.9000
677.000                     6955.8000
677.500                     6779.6000
678.000                     6732.0000
678.500                     6713.9000
679.000                     6935.1000
679.500                     6856.4000
680.000                     6867.7000
680.500                     6955.1000
681.000                     6881.1000
681.500                     6847.1000
682.000                     6884.4000
682.500                     6798.9000
683.000                     6964.2000
683.500                     6834.3000
684.000                     6792.6000
684.500                     6855.6000
685.000                     6846.9000
685.500                     6818.7000
686.000                     6876.7000
686.500                     6892.7000
687.000                     6711.1000
687.500                     6889.5000
688.000                     6885.7000
688.500                     6722.8000
689.000                     6829.7000
689.500                     6801.0000
690.000                     6970.5000
690.500                     7071.6000
691.000                     7067.3000
691.500                     7058.7000
692.000                     7022.3000
692.500                     7117.3000
693.000                     7274.8000
693.500                     7016.2000
694.000                     7070.6000
694.500                     7225.5000
695.000                     7283.5000
695.500                     7267.0000
696.000                     7315.4000
696.500                     7248.7000
697.000                     7283.8000
697.500                     7357.5000
698.000                     7272.3000
698.500                     7299.6000
699.000                     7383.2000
699.500                     7340.4000
700.000                     7219.5000
700.500                     7235.9000
701.000                     7112.9000
701.500                     7086.3000
702.000                     7178.7000
702.500                     7049.0000
703.000                     6909.2000
703.500                     6918.8000
704.000                     6939.2000
704.500                     6705.9000
705.000                     6676.2000
705.500                     6537.2000
706.000                     6630.9000
706.500                     6557.8000
707.000                     6582.5000
707.500                     6419.6000
708.000                     6383.2000
708.500                     6152.2000
709.000                     6156.9000
709.500                     6064.3000
710.000                     6013.7000
710.500                     5875.5000
711.000                     5907.6000
711.500                     5858.9000
712.000                     5850.3000
712.500                     5704.9000
713.000                     5768.6000
713.500                     5665.6000
714.000                     5754.1000
714.500                     5745.0000
715.000                     5701.9000
715.500                     5644.3000
716.000                     5765.0000
716.500                     5847.8000
717.000                     6050.0000
717.500                     6327.9000
718.000                     7006.3000
718.500                     8359.7000
719.000                    11227.1000
719.500                    15172.3000
720.000                    19377.6000
720.500                    21932.9000
721.000                    21088.8000
721.500                    17051.0000
722.000                    12182.1000
722.500                     8573.7000
723.000                     6692.6000
723.500                     5963.5000
724.000                     5721.8000
724.500                     5552.3000
725.000                     5442.6000
725.500                     5348.6000
726.000                     5368.1000
726.500                     5444.6000
727.000                     5363.8000
727.500                     5560.5000
728.000                     6034.6000
728.500                     6220.3000
729.000                     6511.1000
729.500                     6602.2000
730.000                     6546.9000
730.500                     6453.4000
731.000                     6248.4000
731.500                     5906.4000
732.000                     5662.4000
732.500                     5287.6000
733.000                     5127.0000
733.500                     4970.8000
734.000                     4949.8000
734.500                     5036.8000
735.000                     4972.5000
735.500                     4895.3000
736.000                     5026.2000
736.500                     5158.7000
737.000                     5188.7000
737.500                     5001.8000
738.000                     4953.6000
738.500                     5030.9000
739.000                     5056.0000
739.500                     5023.7000
740.000                     5055.3000
740.500                     5013.8000
741.000                     5035.2000
741.500                     5023.1000
742.000                     5139.3000
742.500                     5029.5000
743.000                     5048.5000
743.500                     5034.6000
744.000                     4839.3000
744.500                     4897.6000
745.000                     4870.3000
745.500                     4914.5000
746.000                     4916.0000
746.500                     4874.1000
747.000                     4806.5000
747.500                     4841.3000
748.000                     4975.8000
748.500                     4919.8000
749.000                     4986.2000
749.500                     4944.0000
750.000                     4896.9000
750.500                     4844.2000
751.000                     4893.7000
751.500                     4812.3000
752.000                     4844.0000
752.500                     4905.2000
753.000                     4947.4000
753.500                     4917.5000
754.000                     4878.6000
754.500                     4895.2000
755.000                     4927.3000
755.500                     4918.3000
756.000                     4852.3000
756.500                     4852.1000
757.000                     4962.8000
757.500                     4875.8000
758.000                     4871.6000
758.500                     4853.1000
759.000                     4771.6000
759.500                     4867.5000
760.000                     4839.1000
760.500                     5036.5000
761.000                     4945.6000
761.500                     4868.5000
762.000                     4934.6000
762.500                     4889.7000
763.000                     4885.3000
763.500                     4923.9000
764.000                     4968.8000
764.500                     4944.7000
765.000                     4997.8000
765.500                     4898.9000
766.000                     4908.5000
766.500                     4878.9000
767.000                     4885.7000
767.500                     4889.4000
768.000                     4809.1000
768.500                     4954.9000
769.000                     4848.5000
769.500                     4972.1000
770.000                     4899.3000
770.500                     4766.4000
771.000                     4784.5000
771.500                     4856.6000
772.000                     4840.1000
772.500                     4803.8000
773.000                     4963.9000
773.500                     4868.8000
774.000                     4974.1000
774.500                     4875.8000
775.000                     4825.7000
775.500                     4774.9000
776.000                     4866.0000
776.500                     4813.8000
777.000                     4839.3000
777.500                     4893.0000
778.000                     4872.4000
778.500                     4813.3000
779.000                     4902.7000
779.500                     4837.4000
780.000                     4834.7000
780.500                     4812.5000
781.000                     4807.5000
781.500                     4850.7000
782.000                     4846.8000
782.500                     4726.5000
783.000                     4745.4000
783.500                     4780.4000
784.000                     4792.1000
784.500                     4894.0000
785.000                     4762.7000
785.500                     4827.4000
786.000                     4755.1000
786.500                     4805.2000
787.000                     4759.5000
787.500                     4793.7000
788.000                     4844.6000
788.500                     4782.2000
789.000                     4828.8000
789.500                     4890.6000
790.000                     4861.7000
790.500                     4841.2000
791.000                     4824.4000
791.500                     4767.5000
792.000                     4727.9000
792.500                     4828.7000
793.000                     4846.4000
793.500                     4834.0000
794.000                     4775.5000
794.500                     4741.8000
795.000                     4819.4000
795.500                     4766.7000
796.000                     4796.0000
796.500                     4753.8000
797.000                     4758.5000
797.500                     4725.5000
798.000                     4769.5000
798.500                     4763.2000
799.000                     4816.3000
799.500                     4826.2000
800.000                     4786.6000
800.500                     4862.9000
801.000                     4777.7000
801.500                     4813.1000
802.000                     4712.9000
802.500                     4775.2000
803.000                     4744.6000
803.500                     4798.4000
804.000                     4854.5000
804.500                     4725.5000
805.000                     4761.3000
805.500                     4740.0000
806.000                     4774.6000
806.500                     4853.4000
807.000                     4845.2000
807.500                     4811.1000
808.000                     4800.6000
808.500                     4765.0000
809.000                     4775.6000
809.500                     4745.9000
810.000                     4833.7000
810.500                     4755.8000
811.000                     4677.0000
811.500                     4740.0000
812.000                     4879.2000
812.500                     4786.1000
813.000                     4781.8000
813.500                     4835.2000
814.000                     4805.4000
814.500                     4750.8000
815.000                     4805.1000
815.500                     4892.5000
816.000                     4886.8000
816.500                     4815.7000
817.000                     4789.4000
817.500                     4897.4000
818.000                     4798.2000
818.500                     4763.5000
819.000                     4905.6000
819.500                     4795.3000
820.000                     4783.0000
820.500                     4644.6000
821.000                     4773.9000
821.500                     4892.1000
822.000                     4792.8000
822.500                     4876.1000
823.000                     4723.2000
823.500                     4777.2000
824.000                     4875.0000
824.500                     4836.2000
825.000                     4759.8000
825.500                     4818.0000
826.000                     4836.9000
826.500                     4827.3000
827.000                     4968.7000
827.500                     4772.4000
828.000                     4920.4000
828.500                     4831.2000
829.000                     4878.5000
829.500                     4788.0000
830.000                     4726.3000
830.500                     4741.5000
831.000                     4903.5000
831.500                     4888.3000
832.000                     4821.5000
832.500                     4752.5000
833.000                     4752.7000
833.500                     4822.2000
834.000                     4898.9000
834.500                     4895.6000
835.000                     4790.3000
835.500                     4864.0000
836.000                     4877.7000
836.500                     4814.1000
837.000                     4766.1000
837.500                     4835.1000
838.000                     4834.5000
838.500                     4830.7000
839.000                     4781.9000
839.500                     4857.1000
840.000                     4850.8000
840.500                     4789.6000
841.000                     4832.7000
841.500                     4821.5000
842.000                     4924.9000
842.500                     4879.4000
843.000                     4867.6000
843.500                     4869.7000
844.000                     4781.7000
844.500                     4834.1000
845.000                     4807.8000
845.500                     4783.2000
846.000                     4778.2000
846.500                     4814.3000
847.000                     4833.5000
847.500                     4855.9000
848.000                     4797.2000
848.500                     4755.4000
849.000                     4766.2000
849.500                     4827.4000
850.000                     4838.5000
850.500                     4908.2000
851.000                     4899.9000
851.500                     4881.8000
852.000                     4877.6000
852.500                     4891.9000
853.000                     4943.2000
853.500                     4904.5000
854.000                     4941.5000
854.500                     4927.4000
855.000                     4847.7000
855.500                     4861.6000
856.000                     4744.1000
856.500                     4909.8000
857.000                     4884.1000
857.500                     4903.0000
858.000                     4806.0000
858.500                     4889.7000
859.000                     4782.5000
859.500                     4911.8000
860.000                     4845.5000
860.500                     4812.3000
861.000                     4859.5000
861.500                     4853.5000
862.000                     4961.8000
862.500                     4833.5000
863.000                     4778.3000
863.500                     4793.7000
864.000                     4823.0000
864.500                     4950.0000
865.000                     5032.0000
865.500                     4916.8000
866.000                     4845.9000
866.500                     4958.1000
867.000                     4956.5000
867.500                     4852.7000
868.000                     4835.5000
868.500                     4811.6000
869.000                     4876.0000
869.500                     4946.0000
870.000                     5010.4000
870.500                     4884.9000
871.000                     4818.3000
871.500                     4877.4000
872.000                     4847.7000
872.500                     4951.5000
873.000                     4767.0000
873.500                     4821.5000
874.000                     4826.2000
874.500                     4918.8000
875.000                     4889.9000
875.500                     4844.3000
876.000                     4862.4000
876.500                     4958.7000
877.000                     4942.8000
877.500                     4883.6000
878.000                     4860.5000
878.500                     4885.2000
879.000                     4890.0000
879.500                     4788.6000
880.000                     4839.3000
880.500                     4782.1000
881.000                     4897.5000
881.500                     4797.0000
882.000                     4857.7000
882.500                     4974.0000
883.000                     4895.4000
883.500                     4906.8000
884.000                     4908.8000
884.500                     4895.9000
885.000                     4932.5000
885.500                     4847.7000
886.000                     4923.6000
886.500                     4893.1000
887.000                     4883.3000
887.500                     5007.0000
888.000                     4926.6000
888.500                     4860.1000
889.000                     4957.7000
889.500                     4968.0000
890.000                     5020.3000
890.500                     4838.4000
891.000                     5006.3000
891.500                     4923.1000
892.000                     4820.1000
892.500                     4946.1000
893.000                     4920.9000
893.500                     4884.7000
894.000                     4984.1000
894.500                     4881.5000
895.000                     4988.9000
895.500                     5002.8000
896.000                     5000.9000
896.500                     5086.3000
897.000                     5116.2000
897.500                     4973.2000
898.000                     4987.6000
898.500                     5013.8000
899.000                     5029.6000
899.500                     5077.2000
900.000                     5166.9000
900.500                     5077.6000
901.000                     4977.3000
901.500                     5025.2000
902.000                     5051.5000
902.500                     5067.2000
903.000                     4863.9000
903.500                     5040.5000
904.000                     4990.4000
904.500                     5119.9000
905.000                     5189.0000
905.500                     5111.4000
906.000                     5067.6000
906.500                     5135.2000
907.000                     5081.7000
907.500                     5061.6000
908.000                     5021.6000
908.500                     5044.6000
909.000                     5018.3000
909.500                     4943.2000
910.000                     5085.1000
910.500                     5127.8000
911.000                     5001.4000
911.500                     5005.2000
912.000                     5024.9000
912.500                     5164.2000
913.000                     5161.1000
913.500                     5096.2000
914.000                     5026.7000
914.500                     5055.2000
915.000                     5033.9000
915.500                     4956.0000
916.000                     5171.0000
916.500                     5106.8000
917.000                     5035.9000
917.500                     5043.5000
918.000                     5090.6000
918.500                     4998.9000
919.000                     5027.8000
919.500                     4952.7000
920.000                     4951.6000
920.500                     4963.2000
921.000                     4941.5000
921.500                     4945.2000
922.000                     4836.5000
922.500                     4988.7000
923.000                     4927.9000
923.500                     5024.4000
924.000                     4831.3000
924.500                     4872.3000
925.000                     4980.9000
925.500                     5014.8000
926.000                     4961.7000
926.500                     4889.9000
927.000                     4971.6000
927.500                     5165.1000
928.000                     5071.5000
928.500                     4990.3000
929.000                     5142.0000
929.500                     5030.7000
930.000                     5013.6000
930.500                     5109.4000
931.000                     5182.4000
931.500                     5109.5000
932.000                     5128.8000
932.500                     5135.0000
933.000                     5098.2000
933.500                     5320.9000
934.000                     5213.0000
934.500                     5151.1000
935.000                     5109.8000
935.500                     5233.6000
936.000                     5308.9000
936.500                     5311.6000
937.000                     5400.0000
937.500                     5279.9000
938.000                     5259.4000
938.500                     5296.9000
939.000                     5319.5000
939.500                     5459.8000
940.000                     5529.2000
940.500                     5477.3000
941.000                     5293.5000
941.500                     5400.4000
942.000                     5298.9000
942.500                     5347.6000
943.000                     5257.4000
943.500                     5389.5000
944.000                     5332.2000
944.500                     5167.6000
945.000                     5168.4000
945.500                     5146.4000
946.000                     5033.3000
946.500                     5135.0000
947.000                     5016.5000
947.500                     4942.9000
948.000                     4874.7000
948.500                     4885.5000
949.000                     4726.5000
949.500                     4449.3000
950.000                     4411.9000
950.500                     4415.4000
951.000                     4256.1000
951.500                     4004.3000
952.000                     3925.5000
952.500                     3926.0000
953.000                     3785.8000
953.500                     3724.2000
954.000                     3654.9000
954.500                     3577.7000
955.000                     3436.9000
955.500                     3308.7000
956.000                     3286.2000
956.500                     3208.3000
957.000                     3053.2000
957.500                     3037.1000
958.000                     3099.3000
958.500                     3098.4000
959.000                     3057.7000
959.500                     3056.3000
960.000                     3046.5000
960.500                     3067.9000
961.000                     3158.7000
961.500                     3145.4000
962.000                     3147.5000
962.500                     3305.6000
963.000                     3454.9000
963.500                     3644.6000
964.000                     4094.1000
964.500                     4601.2000
965.000                     5878.5000
965.500                     7726.7000
966.000                     9923.0000
966.500                    12439.9000
967.000                    14971.1000
967.500                    16449.6000
968.000                    17448.6000
968.500                    18016.5000
969.000                    16594.8000
969.500                    12461.5000
970.000                     7260.3000
970.500                     3727.1000
971.000                     2350.3000
971.500                     1914.8000
972.000                     1722.1000
972.500                     1724.7000
973.000                     1755.7000
973.500                     1763.1000
974.000                     1907.1000
974.500                     2014.9000
975.000                     2163.6000
975.500                     2450.5000
976.000                     2633.4000
976.500                     2849.0000
977.000                     2916.4000
977.500                     2870.0000
978.000                     2635.9000
978.500                     2314.1000
979.000                     2131.7000
979.500                     1846.0000
980.000                     1509.5000
980.500                     1211.1000
981.000                     1063.5000
981.500                     1001.6000
982.000                      992.4000
982.500                      970.0000
983.000                      968.4000
983.500                     1029.6000
984.000                     1003.2000
984.500                      995.4000
985.000                      996.2000
985.500                      991.8000
986.000                      974.0000
986.500                     1005.2000
987.000                     1007.9000
987.500                      993.8000
988.000                      978.9000
988.500                      942.6000
989.000                      991.4000
989.500                      946.2000
990.000                      923.9000
990.500                      875.8000
991.000                      875.1000
991.500                      855.7000
992.000                      861.1000
992.500                      858.3000
993.000                      826.0000
993.500                      831.2000
994.000                      793.5000
994.500                      776.1000
995.000                      831.2000
995.500                      819.7000
996.000                      833.3000
996.500                      879.6000
997.000                      855.1000
997.500                      830.4000
998.000                      813.6000
998.500                      824.5000
999.000                      814.5000
999.500                      766.1000
1000.000                     776.2000
1000.500                     791.1000
1001.000                     788.1000
1001.500                     768.2000
1002.000                     762.9000
1002.500                     737.9000
1003.000                     758.5000
1003.500                     746.2000
1004.000                     751.0000
1004.500                     752.3000
1005.000                     736.9000
1005.500                     717.1000
1006.000                     758.5000
1006.500                     785.6000
1007.000                     780.3000
1007.500                     759.8000
1008.000                     803.4000
1008.500                     822.5000
1009.000                     797.9000
1009.500                     813.9000
1010.000                     831.8000
1010.500                     811.8000
1011.000                     832.4000
1011.500                     810.2000
1012.000                     864.7000
1012.500                     876.4000
1013.000                     828.1000
1013.500                     852.6000
1014.000                     842.5000
1014.500                     850.4000
1015.000                     840.3000
1015.500                     866.0000
1016.000                     779.1000
1016.500                     779.2000
1017.000                     789.9000
1017.500                     816.5000
1018.000                     740.9000
1018.500                     701.8000
1019.000                     736.9000
1019.500                     709.2000
1020.000                     721.3000
1020.500                     694.6000
1021.000                     668.3000
1021.500                     703.7000
1022.000                     662.6000
1022.500                     680.7000
1023.000                     699.5000
1023.500                     670.8000
1024.000                     754.4000
1024.500                     711.7000
1025.000                     672.0000
1025.500                     692.9000
1026.000                     669.8000
1026.500                     727.1000
1027.000                     682.9000
1027.500                     646.0000
1028.000                     709.3000
1028.500                     678.7000
1029.000                     700.9000
1029.500                     649.6000
1030.000                     681.0000
1030.500                     702.4000
1031.000                     672.3000
1031.500                     689.2000
1032.000                     688.6000
1032.500                     651.6000
1033.000                     664.1000
1033.500                     689.6000
1034.000                     694.5000
1034.500                     704.1000
1035.000                     729.4000
1035.500                     680.7000
1036.000                     664.2000
1036.500                     684.7000
1037.000                     706.1000
1037.500                     689.5000
1038.000                     665.4000
1038.500                     731.7000
1039.000                     729.6000
1039.500                     670.7000
1040.000                     680.1000
1040.500                     686.3000
1041.000                     699.5000
1041.500                     704.0000
1042.000                     726.6000
1042.500                     643.6000
1043.000                     678.6000
1043.500                     688.5000
1044.000                     703.0000
1044.500                     703.9000
1045.000                     656.6000
1045.500                     703.2000
1046.000                     664.8000
1046.500                     672.7000
1047.000                     653.9000
1047.500                     654.1000
1048.000                     669.5000
1048.500                     612.2000
1049.000                     647.5000
1049.500                     621.6000
1050.000                     660.5000
1050.500                     686.5000
1051.000                     654.3000
1051.500                     641.6000
1052.000                     670.6000
1052.500                     659.0000
1053.000                     690.9000
1053.500                     698.7000
1054.000                     658.7000
1054.500                     649.1000
1055.000                     644.8000
1055.500                     615.3000
1056.000                     655.8000
1056.500                     654.9000
1057.000                     611.8000
1057.500                     673.4000
1058.000                     677.9000
1058.500                     668.6000
1059.000                     693.9000
1059.500                     655.4000
1060.000                     679.7000
1060.500                     665.0000
1061.000                     674.7000
1061.500                     697.3000
1062.000                     732.4000
1062.500                     664.9000
1063.000                     664.4000
1063.500                     656.6000
1064.000                     645.0000
1064.500                     675.3000
1065.000                     625.7000
1065.500                     681.3000
1066.000                     674.5000
1066.500                     658.9000
1067.000                     671.9000
1067.500                     680.2000
1068.000                     663.6000
1068.500                     618.6000
1069.000                     647.5000
1069.500                     672.4000
1070.000                     640.1000
1070.500                     642.6000
1071.000                     622.4000
1071.500                     661.5000
1072.000                     612.5000
1072.500                     655.0000
1073.000                     669.3000
1073.500                     644.0000
1074.000                     628.2000
1074.500                     676.3000
1075.000                     661.9000
1075.500                     648.0000
1076.000                     646.0000
1076.500                     619.9000
1077.000                     656.5000
1077.500                     601.8000
1078.000                     617.6000
1078.500                     597.6000
1079.000                     597.4000
1079.500                     616.6000
1080.000                     636.2000
1080.500                     649.8000
1081.000                     635.5000
1081.500                     630.1000
1082.000                     670.9000
1082.500                     645.3000
1083.000                     679.6000
1083.500                     684.8000
1084.000                     689.0000
1084.500                     614.5000
1085.000                     651.6000
1085.500                     637.1000
1086.000                     640.3000
1086.500                     647.5000
1087.000                     636.8000
1087.500                     687.1000
1088.000                     647.7000
1088.500                     645.5000
1089.000                     648.8000
1089.500                     649.7000
1090.000                     617.9000
1090.500                     682.2000
1091.000                     644.7000
1091.500                     644.5000
1092.000                     616.2000
1092.500                     652.5000
1093.000                     660.3000
1093.500                     677.2000
1094.000                     695.0000
1094.500                     672.1000
1095.000                     671.8000
1095.500                     643.9000
1096.000                     661.9000
1096.500                     613.7000
1097.000                     611.4000
1097.500                     641.8000
1098.000                     631.8000
1098.500                     630.3000
1099.000                     613.3000
1099.500                     607.7000
1100.000                     634.9000
1100.500                     620.5000
1101.000                     643.0000
1101.500                     672.1000
1102.000                     659.0000
1102.500                     602.6000
1103.000                     599.7000
1103.500                     624.3000
1104.000                     620.2000
1104.500                     616.1000
1105.000                     638.3000
1105.500                     681.1000
1106.000                     646.5000
1106.500                     650.1000
1107.000                     599.5000
1107.500                     631.5000
1108.000                     668.2000
1108.500                     689.4000
1109.000                     664.2000
1109.500                     657.4000
1110.000                     630.3000
1110.500                     641.1000
1111.000                     595.7000
1111.500                     603.2000
1112.000                     642.1000
1112.500                     661.3000
1113.000                     638.6000
1113.500                     628.7000
1114.000                     600.3000
1114.500                     635.0000
1115.000                     649.3000
1115.500                     628.7000
1116.000                     601.6000
1116.500                     657.0000
1117.000                     660.1000
1117.500                     687.2000
1118.000                     602.3000
1118.500                     624.5000
1119.000                     612.9000
1119.500                     633.0000
1120.000                     647.6000
1120.500                     630.1000
1121.000                     613.5000
1121.500                     644.9000
1122.000                     605.7000
1122.500                     612.5000
1123.000                     629.7000
1123.500                     635.3000
1124.000                     637.0000
1124.500                     597.3000
1125.000                     638.4000
1125.500                     689.9000
1126.000                     594.8000
1126.500                     568.8000
1127.000                     601.4000
1127.500                     645.0000
1128.000                     657.1000
1128.500                     644.9000
1129.000                     629.7000
1129.500                     608.5000
1130.000                     628.6000
1130.500                     568.5000
1131.000                     578.0000
1131.500                     609.6000
1132.000                     612.8000
1132.500                     624.5000
1133.000                     651.9000
1133.500                     625.4000
1134.000                     607.1000
1134.500                     622.7000
1135.000                     603.4000
1135.500                     586.1000
1136.000                     628.2000
1136.500                     624.4000
1137.000                     640.7000
1137.500                     618.1000
1138.000                     626.8000
1138.500                     612.4000
1139.000                     605.6000
1139.500                     614.9000
1140.000                     642.1000
1140.500                     630.2000
1141.000                     587.3000
1141.500                     604.8000
1142.000                     616.9000
1142.500                     597.4000
1143.000                     591.5000
1143.500                     581.7000
1144.000                     579.1000
1144.500                     557.6000
1145.000                     572.9000
1145.500                     604.1000
1146.000                     601.4000
1146.500                     593.6000
1147.000                     569.6000
1147.500                     619.4000
1148.000                     580.7000
1148.500                     623.1000
1149.000                     619.3000
1149.500                     583.9000
1150.000                     601.4000
1150.500                     570.9000
1151.000                     619.8000
1151.500                     606.0000
1152.000                     615.5000
1152.500                     588.1000
1153.000                     598.1000
1153.500                     629.1000
1154.000                     618.7000
1154.500                     635.3000
1155.000                     582.2000
1155.500                     592.6000
1156.000                     629.2000
1156.500                     608.4000
1157.000                     573.0000
1157.500                     597.7000
1158.000                     597.6000
1158.500                     609.7000
1159.000                     603.1000
1159.500                     585.0000
1160.000                     599.7000
1160.500                     595.4000
1161.000                     609.9000
1161.500                     634.1000
1162.000                     588.5000
1162.500                     596.8000
1163.000                     610.6000
1163.500                     622.8000
1164.000                     613.9000
1164.500                     629.1000
1165.000                     569.8000
1165.500                     583.7000
1166.000                     592.9000
1166.500                     632.7000
1167.000                     590.5000
1167.500                     599.8000
1168.000                     576.8000
1168.500                     600.4000
1169.000                     595.2000
1169.500                     587.6000
1170.000                     591.4000
1170.500                     590.2000
1171.000                     568.2000
1171.500                     540.2000
1172.000                     598.3000
1172.500                     597.2000
1173.000                     598.7000
1173.500                     621.5000
1174.000                     612.2000
1174.500                     585.9000
1175.000                     603.7000
1175.500                     607.8000
1176.000                     615.2000
1176.500                     587.2000
1177.000                     594.9000
1177.500                     601.2000
1178.000                     631.6000
1178.500                     625.0000
1179.000                     577.4000
1179.500                     591.8000
1180.000                     617.3000
1180.500                     590.7000
1181.000                     635.2000
1181.500                     560.2000
1182.000                     575.1000
1182.500                     555.2000
1183.000                     572.0000
1183.500                     581.3000
1184.000                     570.9000
1184.500                     567.7000
1185.000                     573.6000
1185.500                     584.4000
1186.000                     548.0000
1186.500                     572.6000
1187.000                     578.0000
1187.500                     558.2000
1188.000                     573.4000
1188.500                     563.6000
1189.000                     534.0000
1189.500                     582.8000
1190.000                     592.0000
1190.500                     594.2000
1191.000                     618.8000
1191.500                     568.5000
1192.000                     549.5000
1192.500                     569.6000
1193.000                     579.4000
1193.500                     572.2000
1194.000                     557.2000
1194.500                     574.6000
1195.000                     609.3000
1195.500                     552.5000
1196.000                     575.2000
1196.500                     558.0000
1197.000                     556.1000
1197.500                     563.3000
1198.000                     615.2000
1198.500                     619.4000
1199.000                     639.9000
1199.500                     625.9000
1200.000                     624.1000
1200.500                     630.9000
1201.000                     663.0000
1201.500                     666.1000
1202.000                     685.3000
1202.500                     639.4000
1203.000                     614.0000
1203.500                     526.4000
1204.000                     577.0000
1204.500                     574.7000
1205.000                     554.1000
1205.500                     574.4000
1206.000                     541.8000
1206.500                     565.9000
1207.000                     555.0000
1207.500                     599.9000
1208.000                     581.0000
1208.500                     558.0000
1209.000                     591.9000
1209.500                     605.0000
1210.000                     576.8000
1210.500                     548.0000
1211.000                     531.7000
1211.500                     558.0000
1212.000                     536.9000
1212.500                     527.0000
1213.000                     552.1000
1213.500                     554.9000
1214.000                     549.5000
1214.500                     531.1000
1215.000                     528.6000
1215.500                     537.2000
1216.000                     521.1000
1216.500                     562.1000
1217.000                     517.6000
1217.500                     543.6000
1218.000                     500.9000
1218.500                     503.4000
1219.000                     509.7000
1219.500                     536.0000
1220.000                     498.2000
1220.500                     506.2000
1221.000                     515.2000
1221.500                     496.7000
1222.000                     525.8000
1222.500                     521.9000
1223.000                     550.6000
1223.500                     565.6000
1224.000                     561.6000
1224.500                     551.7000
1225.000                     591.9000
1225.500                     629.5000
1226.000                     655.8000
1226.500                     646.7000
1227.000                     697.1000
1227.500                     663.6000
1228.000                     619.3000
1228.500                     608.4000
1229.000                     571.0000
1229.500                     579.6000
1230.000                     508.6000
1230.500                     519.1000
1231.000                     514.1000
1231.500                     519.6000
1232.000                     517.1000
1232.500                     507.6000
1233.000                     540.8000
1233.500                     568.4000
1234.000                     625.2000
1234.500                     639.5000
1235.000                     620.3000
1235.500                     654.0000
1236.000                     682.2000
1236.500                     565.2000
1237.000                     597.9000
1237.500                     626.0000
1238.000                     607.4000
1238.500                     568.5000
1239.000                     544.8000
1239.500                     529.6000
1240.000                     541.4000
1240.500                     522.6000
1241.000                     506.4000
1241.500                     477.2000
1242.000                     480.8000
1242.500                     510.9000
1243.000                     500.0000
1243.500                     437.3000
1244.000                     492.1000
1244.500                     508.8000
1245.000                     472.7000
1245.500                     460.9000
1246.000                     450.0000
1246.500                     458.1000
1247.000                     438.8000
1247.500                     453.9000
1248.000                     445.1000
1248.500                     381.7000
1249.000                     393.4000
1249.500                     362.8000
1250.000                     357.8000
1250.500                     372.7000
1251.000                     354.7000
1251.500                     332.5000
1252.000                     295.6000
1252.500                     324.0000
1253.000                     326.7000
1253.500                     332.4000
1254.000                     336.7000
1254.500                     334.2000
1255.000                     324.3000
1255.500                     310.2000
1256.000                     294.6000
1256.500                     307.7000
1257.000                     290.5000
1257.500                     279.4000
1258.000                     273.1000
1258.500                     251.4000
1259.000                     261.0000
1259.500                     282.7000
1260.000                     312.5000
